"Shalehills,"	2012	:	input	for	MTCLIM	v4.3				
MTCLIM	v4.3	OUTPUT	FILE	:	Mon	Jan	16	16:32:50	2012	
	yday	Tmax	Tmin	Tday	prcp	VPD	srad	daylen	SoilW	SoilT
		(degC)	(degC)	(degC)	(cm)	(Pa)	(Wm-2)	(s)	(%)	(deg C)
2008	1	4.44	-2.78	2.46	0.945	162.1754386	107.3576895	32928	32.72065281	2.006827828
2008	2	3.89	-5.56	1.29	0.02	187.1368421	242.3626217	32971	32.72366274	1.544565418
2008	3	-3.33	-11.11	-5.47	0	101.5438596	153.795681	33017	32.6709004	1.420003691
2008	4	-4.44	-10.56	-6.13	0	79.34736842	210.6844795	33066	32.44402235	1.208710094
2008	5	3.33	-9.44	-0.18	0	213.3263158	184.7731816	33119	32.29671273	1.217014209
2008	6	5.56	-0.56	3.88	0.09	153.9578947	216.999156	33175	32.38970192	1.218859568
2008	7	7.78	5	7.01	0.035	91.50175439	201.3661912	33234	32.65436348	2.070492711
2008	8	18.89	6.11	15.38	0.025	564.2736842	215.6980118	33296	32.70648842	4.238789445
2008	9	19.44	8.33	16.39	0.06	537.6280702	150.879084	33362	32.67341458	5.464107769
2008	10	11.67	-0.56	8.31	0	356.7017544	204.7227424	33431	32.57958196	4.009042259
2008	11	7.78	-0.56	5.49	2.36	221.4175439	101.7295765	33503	34.33086023	3.183244141
2008	12	10.56	2.78	8.42	0	250.8	220.641115	33579	33.54349741	3.203543089
2008	13	6.11	-2.22	3.82	0	199.2421053	135.333987	33657	33.00907512	3.564310758
2008	14	3.89	-2.22	2.21	0.12	138.4210526	111.5724702	33738	32.72879733	3.125115335
2008	15	2.78	-2.78	1.25	0	119.7754386	163.3214476	33822	32.54072969	3.198007012
2008	16	-1.11	-2.78	-1.57	0	32.70175439	175.9470937	33909	32.40917796	3.188780218
2008	17	0	-3.33	-0.92	0.57	65.66315789	56.70431483	33999	32.2517408	3.11681122
2008	18	2.22	-2.22	1	0.33	96.6877193	269.1626188	34092	32.14281667	3.172171987
2008	19	2.78	-6.67	0.18	0	173.9508772	105.2589581	34187	32.12195961	3.118656579
2008	20	-1.11	-12.22	-4.17	0	146.877193	205.0519469	34285	32.06817036	3.298579074
2008	21	-10	-13.89	-11.07	0	37.60701754	306.8234165	34386	33.19248188	3.274589408
2008	22	-5	-13.89	-7.44	0	98.44210526	78.45701528	34489	32.89090873	3.152795719
2008	23	2.78	-6.11	0.33	0	167.4526316	314.5387484	34595	32.65156601	2.386049087
2008	24	-2.78	-7.78	-4.15	0	76.32280702	179.3039219	34703	32.44430563	2.316848127
2008	25	-2.22	-10	-4.36	0	109.6210526	321.8284598	34814	32.26700293	2.356523344
2008	26	-3.89	-10	-5.57	0.04	82.45614035	144.0329554	34926	32.11370886	2.39712124
2008	27	-2.78	-8.33	-4.31	0	82.82807018	171.1772159	35042	32.01576213	3.118656579
2008	28	-0.56	-5	-1.78	0	80.60350877	214.1984129	35159	32.35567199	2.240265732
2008	29	2.22	-2.22	1	0.4	96.6877193	60.02176994	35278	32.57851319	2.386971766
2008	30	5.56	-1.11	3.72	1.5	164.3087719	331.9026836	35400	32.59168607	2.368518177
2008	31	0.56	-8.89	-2.04	0	149.9578947	310.5629592	35523	34.15490314	2.224580181
2008	32	1.11	-7.78	-1.33	2.715	149.9017544	46.30497349	35649	34.74029762	2.334379037
2008	33	2.78	-2.22	1.4	0.005	110.245614	73.32927102	35776	34.73717593	2.228270899
2008	34	1.11	-5.56	-0.72	0	123.1789474	260.4022003	35905	34.73803241	2.588115889
2008	35	6.11	-5	3.06	0.02	238.077193	38.36863137	36036	34.77594907	2.540136557
2008	36	5	0.56	3.78	1.02	115.4596491	80.53543089	36169	34.68726852	2.295626499
2008	37	13.33	3.33	10.58	0.4	351.2280702	78.46806049	36303	34.79351981	0.762133235
2008	38	16.67	1.67	12.54	1.01	536.0421053	45.74489572	36440	34.78972222	0.624653995
2008	39	3.33	-1.11	2.11	0.06	103.8526316	123.2830467	36577	34.7769213	0.703081749
2008	40	2.22	-2.22	1	0.78	96.6877193	138.0326833	36716	34.80240741	0.784277542
2008	41	4.44	-1.67	2.76	0.21	143.4385965	181.0377947	36857	34.74625	0.373685182
2008	42	-1.11	-16.67	-5.39	0	170.5473684	361.1028676	36999	34.7124537	0.470566525
2008	43	-8.89	-16.67	-11.03	1.91	68.41403509	67.61667071	37143	34.75488426	0.764901273
2008	44	-3.33	-11.67	-5.63	0.57	106.2385965	88.37750422	37287	34.76152778	0.727994095
2008	45	0.56	-7.78	-1.74	0	138.5403509	386.4039751	37433	34.79988426	0.440118103
2008	46	2.22	-7.78	-0.53	0	173.5438596	48.00670552	37581	34.84944444	0.658793135
2008	47	2.78	-11.11	-1.04	0	213.5157895	360.9479711	37729	34.89506944	0.447499539
2008	48	2.22	-10.56	-1.29	0.23	197.9649123	113.6486708	37879	34.93393519	1.167189518
2008	49	8.89	-0.56	6.29	0.44	257.7403509	149.1559073	38029	34.9419213	1.071230854
2008	50	8.33	-4.44	4.82	0	295.9298246	268.2594484	38181	34.93819444	3.2896607
2008	51	-1.11	-10	-3.56	0	128.9964912	278.4670527	38334	34.98671296	3.1744306
2008	52	-3.89	-12.78	-6.33	0	106.4491228	408.2062515	38487	34.99472222	2.6205417
2008	53	-2.22	-12.78	-5.13	1.05	132.2526316	81.46348533	38642	35.00430556	2.4849167
2008	54	-2.78	-5.56	-3.54	0.08	46.58245614	206.2048044	38798	35.01956019	3.0746806
2008	55	1.67	-8.89	-1.24	0	172.5333333	423.5156852	38954	35.05159722	2.8411189
2008	56	5	-8.89	1.18	0	247.7824561	333.055432	39111	35.10900463	2.5754722
2008	57	2.78	-5	0.64	0.79	153.2701754	48.759836	39269	35.15824074	2.8515556
2008	58	1.67	-3.33	0.29	0.01	102.5754386	224.413843	39428	35.18351852	2.7784792
2008	59	-2.22	-11.67	-4.82	0	124.0421053	367.6338697	39587	35.07483796	1.6330903
2008	60	1.67	-12.22	-2.15	1.565	197.9789474	241.4387501	39747	35.07833333	1.0255556
2008	61	1.67	-5.56	-0.32	0	135.3192982	267.2369008	39907	35.07347222	1.1793889
2008	62	4.44	-5.56	1.69	0	200.9473684	350.9771139	40068	35.08717593	1.7294306
2008	63	15.56	1.67	11.74	2.165	483.3684211	414.2868009	40230	35.09782407	2.4982222
2008	64	7.78	1.67	6.1	3.805	176.9894737	20.58868093	40392	35.15428241	2.9246319
2008	65	4.44	-2.78	2.46	0	162.1754386	93.01013439	40555	35.0812037	3.3907569
2008	66	7.78	-2.78	4.88	1.01	257.2491228	421.6082568	40718	35.08210648	4.598
2008	67	7.22	-1.11	4.93	2.03	213.8035088	111.9551392	40882	35.03509259	4.7104167
2008	68	3.33	-7.22	0.43	0	192.8140351	38.96711007	41046	34.95805556	4.7026319
2008	69	0	-6.67	-1.83	0	114.4140351	427.5723125	41210	35.07722611	4.4665069
2008	70	6.11	-3.89	3.36	0	223.8807018	307.5047976	41375	35.06710648	4.4014514
2008	71	6.11	1.11	4.74	0.01	136.2807018	266.7002889	41540	35.04069444	5.2088333
2008	72	4.44	-3.33	2.31	0	170.8210526	151.646709	41705	34.93118056	5.2514861
2008	73	13.33	-3.33	8.75	0.015	456.6035088	411.4743253	41870	34.95076389	4.9932153
2008	74	15	3.89	11.94	0.335	414.0701754	323.0455086	42036	34.95268519	5.9665764
2008	75	10	1.11	7.56	0	265.5368421	247.5309227	42202	35.05247685	6.794125
2008	76	5.56	-3.89	2.96	0	208.5403509	163.6050793	42368	34.92935185	6.1680069
2008	77	7.78	-3.89	4.57	0.1	272.2807018	462.9329948	42534	34.92270833	4.8552569
2008	78	5.56	2.22	4.64	1.52	93.68421053	53.51101848	42701	34.92886574	5.1107708
2008	79	12.78	1.67	9.72	0.21	362.0140351	76.81797187	42867	34.96469907	5.6992778
2008	80	3.89	-2.78	2.06	0	147.677193	336.8751888	43033	35.03861111	6.1179444
2008	81	6.11	-2.78	3.67	1.19	207.922807	468.9779398	43200	35.02847222	5.4337222
2008	82	5.56	-6.11	2.35	0	235.8736842	285.277683	43366	35.04085648	4.7983611
2008	83	6.11	-5.56	2.9	0	244.554386	510.7787885	43533	35.07518519	4.4299375
2008	84	5.56	-4.44	2.81	0	216	376.0483535	43699	35.15615741	4.2300833
2008	85	9.44	-3.89	5.78	0	324.4350877	479.0154337	43865	35.1941958	4.445
2008	86	12.22	1.67	9.32	0.125	339.4175439	323.6223883	44032	35.25594907	6.2849861
2008	87	6.67	2.22	5.44	0.615	128.1684211	57.97117517	44198	35.15530093	5.8077832
2008	88	7.22	-2.78	4.47	0	240.3929825	70.15533215	44363	35.13636574	5.9703889
2008	89	7.22	-4.44	4.01	0	262.7508772	531.2154326	44529	35.08456019	5.0638819
2008	90	10	-4.44	6.03	0	348.8912281	497.9753216	44695	35.17895833	4.9030208
2008	91	13.33	4.44	10.89	0.155	325.3473684	225.2769728	44860	35.25233796	6.0235278
2008	92	21.11	1.11	15.61	0.005	779.5157895	172.8890394	45025	35.28780093	7.9319861
2008	93	8.33	-2.78	5.28	0	274.5263158	466.8634875	45190	35.38303241	7.1006042
2008	94	9.44	-2.22	6.24	0.9	302.6736842	317.4336773	45354	35.36287037	5.4417153
2008	95	11.67	3.33	9.38	0.19	281.5789474	112.3247726	45518	35.27585648	5.8111875
2008	96	12.22	4.44	10.08	0	277.5157895	277.5338981	45681	35.25527778	6.8235278
2008	97	15	4.44	12.1	0	401.4596491	405.2141564	45845	35.28881944	7.3578125
2008	98	8.33	5.56	7.57	0	94.65263158	126.1629535	46007	35.33337963	7.3352778
2008	99	14.44	6.11	12.15	0	332.6807018	261.7510234	46169	35.31268519	7.5753056
2008	100	16.11	6.11	13.36	0	414.5754386	256.6507954	46331	35.27918981	8.5872917
2008	101	20.56	6.67	16.74	0.74	649.7052632	479.4604878	46492	35.28148148	9.1102083
2008	102	20	11.67	17.71	0.19	459.0105263	143.7465115	46653	35.2881713	10.138958
2008	103	18.33	3.89	14.36	0.225	581.7052632	457.5626642	46813	35.25108796	10.592797
2008	104	8.33	0.56	6.19	0.015	218.6315789	169.5090905	46972	35.1012037	8.8723611
2008	105	10.56	-2.22	7.04	0	340.6947368	401.2751692	47131	35.14226852	7.2576458
2008	106	15	0	10.88	0	484.5333333	561.5878957	47289	35.20127315	6.9851875
2008	107	20	2.22	15.11	0	701.6982456	552.2627197	47446	35.2612963	7.5803472
2008	108	26.11	7.22	20.92	0	1022.021053	554.4629847	47602	35.26796296	8.7313819
2008	109	28.33	10.56	23.44	0	1130.484211	537.8415763	47758	35.19479167	10.419514
2008	110	27.22	12.22	23.1	3.12	984.1192982	416.5839038	47912	35.2194213	11.276597
2008	111	15.56	12.78	14.79	0.24	144.8140351	114.7453709	48066	35.27703704	11.364514
2008	112	21.11	11.67	18.51	0	532.8070175	275.9571123	48219	35.28138889	9.7902083
2008	113	22.22	10	18.86	0	666.6666667	413.340583	48370	35.22150463	9.7788889
2008	114	23.89	10.56	20.22	0	768.9403509	420.1529441	48521	35.19868056	9.9552778
2008	115	22.22	11.11	19.17	0	629.8245614	519.813544	48671	35.2480787	10.396806
2008	116	25	11.11	21.18	2.11	836.3719298	386.4334788	48819	35.81094771	10.451389
2008	117	27.22	10.56	22.64	0.43	1034.203509	392.209431	48966	36.86766234	11.669792
2008	118	19.44	7.22	16.08	2.13	568.5824561	410.8230982	49112	36.87541667	11.055972
2008	119	11.11	5	9.43	0	217.0666667	85.5561443	49257	36.90423611	9.3670139
2008	120	13.89	2.78	10.83	0	387.2912281	439.6441772	49401	36.85930556	9.2635417
2008	121	12.22	3.33	9.78	0	304.245614	404.569364	49543	36.85305556	8.1047222
2008	122	15	3.89	11.94	0	414.0701754	256.0311173	49683	36.838125	7.8560625
2008	123	23.33	9.44	19.51	0.66	761.6350877	312.3472894	49823	36.79125	9.3290278
2008	124	19.44	10	16.85	0.82	484.7017544	286.4218775	49960	36.813125	10.769028
2008	125	16.67	2.78	12.85	0	516.7719298	382.8252355	50096	36.79402778	10.693611
2008	126	20.56	5.56	16.43	0	674.7789474	539.717107	50231	36.82263889	9.8045833
2008	127	22.78	8.33	18.81	0	752.9473684	415.900959	50363	36.85819444	10.098889
2008	128	26.11	12.78	22.44	0.21	870.1122807	487.7954253	50495	36.88284722	10.847778
2008	129	21.11	6.67	17.14	0.99	684.2807018	207.1066688	50624	36.92861111	12.185556
2008	130	12.22	7.78	11	0	179.5649123	103.0653977	50751	36.98763889	11.121597
2008	131	18.33	6.67	15.12	0.05	518.9263158	380.0835348	50877	36.90402778	10.525556
2008	132	16.11	1.11	11.99	2.35	518.3789474	223.787451	51000	36.370625	9.985
2008	133	10	2.22	7.86	0	242.4	136.5087242	51122	33.35729167	8.6742361
2008	134	22.22	7.22	18.1	0.015	743.0105263	573.336625	51241	32.35666667	9.3102941
2008	135	21.67	10	18.46	0.115	628.645614	286.9728961	51358	31.95444444	9.9231169
2008	136	22.78	8.89	18.96	1.31	738.0280702	412.6879141	51473	31.230625	10.692708
2008	137	11.11	5.56	9.58	0.02	201.5017544	64.68117319	51586	30.924375	10.114792
2008	138	18.89	6.67	15.53	0.61	550.5192982	215.1321547	51697	32.22097222	9.2348611
2008	139	15.56	4.44	12.5	0.05	428.0421053	236.0624843	51805	32.164375	9.45875
2008	140	12.78	4.44	10.49	0.98	301.1508772	337.4939703	51910	31.59506944	8.8911806
2008	141	12.78	6.11	10.94	0.47	256.322807	149.0528896	52014	31.06541667	8.2295833
2008	142	15	6.11	12.56	0.12	359.3473684	291.2318379	52114	30.44263889	8.4880556
2008	143	13.33	6.67	11.5	0	264.9403509	377.579158	52212	27.13566319	8.8230556
2008	144	18.89	6.11	15.38	0	564.2736842	488.9290166	52308	28.28807292	9.3807639
2008	145	21.67	6.11	17.39	0	731.9578947	530.3457634	52400	30.10659722	10.226875
2008	146	23.89	9.44	19.92	0	801.9157895	583.9905125	52490	29.40805556	10.883958
2008	147	29.44	13.89	25.17	0	1131.242105	490.009624	52577	27.16358333	12.081806
2008	148	27.22	7.22	21.72	0	1109.866667	328.5980403	52662	28.85034722	14.514514
2008	149	19.44	6.11	15.78	0	596.3157895	585.2339268	52743	28.69368056	13.312639
2008	150	24.44	8.33	20.01	0	871.8105263	570.3446546	52821	28.59854167	12.219306
2008	151	26.11	12.22	22.29	0.22	889.5859649	459.8854545	52896	30.30576389	12.727639
2008	152	27.22	17.78	24.62	0	745.4877193	352.9051143	52969	29.92701389	14.635347
2008	153	25.56	10	21.28	0	913.1789474	486.2564576	53038	29.55576389	15.619653
2008	154	25	13.33	21.79	0	757.5298246	542.0388867	53103	29.16377358	14.468472
2008	155	27.78	15	24.26	2.01	930.4982456	379.1178573	53166	22.67850672	14.597986
2008	156	21.11	17.78	20.19	0.15	232.4	90.04834194	53225	22.03641565	15.612778
2008	157	28.33	19.44	25.89	0	758.1894737	345.9921548	53281	21.65714329	16.918819
2008	158	32.78	20.56	29.42	0	1181.515789	525.1338733	53334	21.03116115	18.762569
2008	159	33.33	23.33	30.58	0	1067.480702	518.1060825	53383	20.10901001	19.530694
2008	160	32.22	22.78	29.62	0	969.2842105	429.2805031	53429	19.99475758	20.185972
2008	161	33.89	21.67	30.53	1.09	1251.333333	544.4346842	53471	29.18458333	20.633611
2008	162	32.22	15.56	27.64	0.11	1357.122807	410.0632218	53510	30.46076389	20.086319
2008	163	28.33	16.11	24.97	0	934.1684211	575.5212714	53546	29.15117014	18.786736
2008	164	30.56	17.78	27.04	0.04	1079.873684	545.3852399	53577	28.17995833	18.310347
2008	165	31.67	19.44	28.31	0.065	1115.017544	437.034623	53606	28.91958333	18.649653
2008	166	25	15.56	22.4	0.005	661.0736842	181.2395301	53630	23.52993056	19.111597
2008	167	27.22	16.67	24.32	0.68	803.0315789	548.206464	53651	22.51570139	18.685694
2008	168	26.67	13.89	23.15	0.82	875.8596491	355.7539921	53669	24.77709722	18.006944
2008	169	19.44	13.33	17.76	0.14	352.6877193	299.6079692	53682	29.40618056	16.320972
2008	170	18.89	8.89	16.14	0	487.4385965	230.6295793	53693	26.18470486	15.247986
2008	171	20	11.11	17.56	0	480.1614035	342.9473361	53699	24.98034375	14.143403
2008	172	26.11	13.33	22.6	0	849.5789474	471.4200588	53702	21.72370833	14.564381
2008	173	28.33	15	24.67	1.01	982.3789474	515.138638	53701	15.94826042	15.59328289
2008	174	26.67	15.56	23.61	0.03	805.2491228	539.7242811	53696	16.63307292	16.49381805
2008	175	25.56	12.78	22.04	0.1	823.9719298	482.1374236	53688	22.31065625	16.51503968
2008	176	25	13.33	21.79	0	757.5298246	423.956815	53676	20.52666319	16.04170511
2008	177	27.22	15	23.86	0.15	879.6982456	441.7024282	53661	15.43073958	16.08322569
2008	178	28.33	18.33	25.58	1.2	822.3719298	305.0543614	53641	18.59418403	18.884697
2008	179	26.67	19.44	24.68	0	595.7403509	276.8843134	53619	20.87679514	18.366597
2008	180	28.89	18.89	26.14	0.04	847.0035088	350.0097029	53592	20.41359375	19.032778
2008	181	27.22	17.22	24.47	0.14	774.9263158	308.2490012	53562	15.57421181	19.049097
2008	182	25.56	15.56	22.81	0	708.1122807	417.4633376	53529	15.84499653	18.394931
2008	183	22.78	13.33	20.18	0	584.9122807	300.6619244	53491	15.85029167	17.539167
2008	184	27.22	15	23.86	0.02	879.6982456	560.1282857	53451	15.61855903	16.960417
2008	185	25.56	18.33	23.57	0.02	561.3684211	231.8553748	53407	15.62349306	17.105972
2008	186	23.89	17.78	22.21	2.12	450.7157895	199.8697127	53359	15.62918403	17.622431
2008	187	24.44	16.11	22.15	0	587.5438596	256.6897839	53308	14.95897917	17.778681
2008	188	27.78	17.22	24.88	0.01	827.3754386	370.6546738	53254	23.265375	18.269792
2008	189	27.22	18.89	24.93	0	682.4421053	297.1433942	53196	26.37489583	19.213403
2008	190	30.56	18.89	27.35	0.44	1022.140351	501.4656629	53135	26.78802083	19.836458
2008	191	26.67	16.11	23.76	0	779.2982456	190.4580091	53071	28.15395833	19.987153
2008	192	26.67	15	23.46	0	829.9649123	565.0716361	53004	27.88927083	19.269514
2008	193	28.33	16.67	25.12	0	908.1964912	471.9697353	52933	23.56993056	18.439653
2008	194	31.11	19.44	27.9	0.33	1052.449123	520.0338063	52860	23.81797203	19.507708
2008	195	27.78	17.22	24.88	0	827.3754386	355.3178675	52783	23.10576389	20.450694
2008	196	26.67	15.56	23.61	0	805.2491228	522.2584862	52703	24.47767361	19.580278
2008	197	28.33	16.11	24.97	0	934.1684211	560.3976055	52620	22.67409722	18.474514
2008	198	31.11	17.22	27.29	0	1166.105263	557.7513277	52535	25.44319444	18.669236
2008	199	31.67	20	28.46	0.12	1083.508772	438.8623918	52446	26.74909722	19.810833
2008	200	32.22	21.11	29.17	0	1081.25614	413.3001242	52355	21.68506944	20.457222
2008	201	31.67	20	28.46	0.385	1083.508772	517.5354854	52261	25.37881356	20.683542
2008	202	32.22	18.89	28.56	0.005	1208.421053	409.5625719	52164	31.3340566	20.344583
2008	203	29.44	18.33	26.39	0.4	934.6666667	405.7065783	52065	23.31246528	20.411597
2008	204	28.89	19.44	26.29	1.29	814.6315789	414.7642553	51963	27.09444444	20.351667
2008	205	23.33	15	21.04	1.04	552.8491228	134.2814223	51858	26.32871528	19.451042
2008	206	25	14.44	22.1	0	711.6350877	347.1107418	51751	22.47072917	18.053403
2008	207	27.78	15.56	24.42	0	906.5894737	534.5950002	51642	26.77045139	17.774028
2008	208	28.33	18.33	25.58	0	822.3719298	433.7922375	51530	26.609375	18.5475
2008	209	27.22	15.56	24.01	0	855.3824561	487.9174592	51417	20.32395833	19.523125
2008	210	28.89	17.22	25.68	0	935.6210526	493.0210721	51300	26.02225694	18.611042
2008	211	30	17.78	26.64	0.52	1021.207018	475.7485444	51182	26.92829861	19.206528
2008	212	29.44	18.33	26.39	0	934.6666667	331.2877091	51062	25.79223776	19.15958
2008	213	28.89	17.78	25.83	0	907.4596491	465.3030487	50939	25.92663194	20.060417
2008	214	28.33	18.89	25.74	0.01	791.0035088	488.1866181	50815	26.13916667	19.8375
2008	215	27.78	16.11	24.57	0	881.4526316	403.8918087	50688	25.81375	19.899028
2008	216	25.56	15	22.65	0	733.6140351	401.7587619	50560	25.27409722	18.999722
2008	217	27.78	16.67	24.72	0.1	855.0596491	479.2455879	50430	25.62225694	18.719861
2008	218	24.44	19.44	23.07	0.39	394.4982456	146.635572	50298	27.65454861	19.233125
2008	219	28.89	16.67	25.53	0.05	962.4561404	530.552428	50164	27.29958333	20.149661
2008	220	26.67	14.44	23.31	0.1	853.4947368	348.5250954	50029	24.35322917	18.680943
2008	221	23.89	12.22	20.68	0	712.2807018	435.3575924	49892	26.45708333	17.663611
2008	222	24.44	13.89	21.54	0.02	690.2175439	512.9065603	49754	27.29131944	17.073194
2008	223	25	14.44	22.1	0.04	711.6350877	470.5948724	49614	21.61072917	17.186597
2008	224	21.67	14.44	19.68	0	453.9789474	312.5321596	49472	19.60798611	16.700903
2008	225	24.44	12.78	21.24	0	734.6105263	409.6248125	49330	23.68715278	16.995556
2008	226	27.78	13.89	23.96	0.55	974.7929825	429.6788924	49186	26.3303125	17.01875
2008	227	25.56	15.56	22.81	0	708.1122807	329.5958401	49040	27.20239583	17.440833
2008	228	25.56	12.78	22.04	0	823.9719298	440.5088354	48894	27.160625	17.405347
2008	229	25.56	14.44	22.5	0	757.9157895	485.5606204	48746	27.69100694	16.929375
2008	230	27.22	15	23.86	0	879.6982456	479.3240941	48597	27.61440972	17.066573
2008	231	29.44	17.22	26.08	0	991.4596491	519.4066383	48446	23.26027778	17.617431
2008	232	26.11	10	21.68	0	957.4807018	374.7148773	48295	21.17944444	17.855
2008	233	25.56	11.11	21.58	0	880.4421053	558.3377853	48143	21.07836806	16.499792
2008	234	29.44	12.78	24.86	0	1168.575439	536.697562	47990	20.9228125	16.494861
2008	235	30	16.11	26.18	0	1099.087719	528.263379	47836	22.79302083	17.842778
2008	236	27.78	17.78	25.03	0	798.3508772	487.5682976	47681	22.96951389	18.039514
2008	237	31.11	18.89	27.75	0.13	1082.968421	468.8788006	47525	22.59770833	18.502569
2008	238	27.78	12.78	23.65	0	1014.603509	525.5087823	47368	24.12361111	18.773958
2008	239	26.11	13.33	22.6	0.003895833	849.5789474	521.6431053	47210	26.62038194	17.271736
2008	240	26.67	13.89	23.15	0.634125	875.8596491	430.7492561	47052	26.14494318	16.490556
2008	241	17.78	15.56	17.17	0.228345833	133.9719298	84.78493592	46893	26.11514841	16.427014
2008	242	21.11	16.67	19.89	0	298.2175439	151.1140497	46734	25.85421022	16.784861
2008	243	27.22	12.22	23.1	0	984.1192982	303.0324007	46573	25.53806214	17.826389
2008	244	27.22	13.33	23.4	0	945.6491228	536.7217159	46413	25.15431337	17.035139
2008	245	26.67	12.78	22.85	0	917.2561404	540.0980303	46251	24.82963804	16.653125
2008	246	29.44	14.44	25.32	0	1110.919298	528.1481265	46089	24.59741357	16.516875
2008	247	30.56	15.56	26.43	0	1179.347368	507.259673	45927	24.41744989	17.156528
2008	248	31.67	16.11	27.39	0	1274.596491	481.1607814	45764	24.25812991	17.627431
2008	249	31.11	20.56	28.21	0.05584375	986.9403509	451.3041667	45600	24.08581197	18.634306
2008	250	22.78	12.78	20.03	0.001297917	607.6070175	102.935339	45437	23.93997685	18.812153
2008	251	25	13.89	21.94	0.002595833	735.1508772	420.2074571	45272	23.66196759	17.684167
2008	252	26.67	13.89	23.15	0.62999375	875.8596491	477.720094	45108	23.46655093	16.861111
2008	253	20	9.44	17.1	0.0122	537.7473684	103.7893554	44943	24.40699074	17.180556
2008	254	21.11	10.56	18.21	0.00726875	572.877193	485.4580151	44778	25.40189815	15.336875
2008	255	20.56	13.33	18.57	0.68049375	426.7087719	303.217672	44613	30.95205128	14.973333
2008	256	21.11	18.33	20.35	0.05988125	197.4105263	84.06061151	44447	33.78796296	16.676181
2008	257	24.44	19.44	23.07	0.0077875	394.4982456	200.9966803	44281	32.87930556	18.165833
2008	258	29.44	18.89	26.54	0	904.1824561	374.1760172	44115	31.68180556	18.651705
2008	259	22.78	11.67	19.72	0	649.7964912	298.3259232	43949	30.87729167	18.59106846
2008	260	20	9.44	17.1	0.002595833	537.7473684	226.0229313	43783	30.72740741	16.88503414
2008	261	23.33	10	19.67	0	745.277193	475.0160029	43617	30.69916667	15.75382912
2008	262	21.11	7.78	17.44	0	656.7087719	442.9891369	43450	30.51173611	15.74644768
2008	263	20.56	8.33	17.19	0	606.2245614	419.7895989	43284	30.35196759	15.06551024
2008	264	21.11	10	18.06	0.003895833	591.4526316	409.7163764	43117	30.24631944	14.84683521
2008	265	24.44	10	20.47	0.002595833	827.4035088	407.9027962	42951	30.24231481	14.98985053
2008	266	19.44	7.78	16.24	0	553.522807	190.3744858	42784	30.19300926	15.17161838
2008	267	21.11	8.89	17.75	0	625.8315789	410.743606	42618	30.07289352	14.341026
2008	268	23.33	9.44	19.51	0	761.6350877	461.1823942	42452	29.96303241	13.522292
2008	269	20.56	11.11	17.96	0.00519375	516.3438596	365.7231471	42286	29.88030093	13.692986
2008	270	17.78	12.22	16.25	0.307825	297.5859649	85.06794872	42120	29.81344907	14.120625
2008	271	21.11	16.67	19.89	0.688397917	298.2175439	146.5197597	41954	29.7719213	15.709861
2008	272	22.22	13.89	19.93	0.0077875	519.9087719	216.5280942	41788	29.72449074	16.850972
2008	273	20.56	10	17.65	0	555.0736842	270.7031689	41623	29.5930787	15.856503
2008	274	18.33	10	16.04	0.233795833	417.4245614	189.9629987	41458	29.40333333	14.021458
2008	275	15.56	8.33	13.57	0	320.5614035	173.7329329	41293	29.21766204	13.355694
2008	276	12.78	8.33	11.56	0	185.5578947	241.5923071	41129	29.0562037	12.143403
2008	277	15	5	12.25	0.103904167	388.154386	164.1662924	40964	28.9531713	11.325764
2008	278	14.44	6.11	12.15	0	332.6807018	231.4760913	40801	28.85384259	10.342222
2008	279	16.67	7.78	14.22	0.002595833	396.3438596	416.6164825	40637	28.73717593	10.922153
2008	280	16.67	2.22	12.69	0.0181875	526.7087719	375.476627	40474	28.66365741	10.754514
2008	281	16.67	2.78	12.85	0.01688125	516.7719298	432.2290881	40312	30.14141204	9.2859722
2008	282	16.67	7.22	14.07	0.035064583	412.7508772	218.5872478	40150	32.94708333	9.736875
2008	283	21.67	8.89	18.15	0	662.4070175	389.0816224	39989	33.01326389	12.405903
2008	284	21.11	6.11	16.99	0	696.8982456	422.8133725	39828	32.94043981	12.023056
2008	285	21.11	5.56	16.83	0	708.7719298	416.9137066	39667	32.52287037	11.215486
2008	286	22.78	7.78	18.65	0	767.0315789	407.251139	39508	31.83921296	11.393958
2008	287	25	8.89	20.57	0	899.6140351	307.6376782	39349	31.09891204	11.857639
2008	288	26.11	8.89	21.37	0	985.8385965	340.0631778	39191	30.75356481	12.345069
2008	289	23.33	12.78	20.43	0	649.0245614	314.6322343	39033	30.64909722	14.298403
2008	290	20	8.89	16.94	0	555.0877193	96.48724149	38876	30.56363426	14.482014
2008	291	12.22	2.78	9.62	0	316.6035088	154.1217459	38720	30.52972222	11.510625
2008	292	10.56	-1.11	7.35	0	324.5192982	289.662077	38565	30.52275463	8.9833333
2008	293	11.67	-1.11	8.15	0.003895833	365.1789474	411.4896254	38411	30.51912037	7.6128403
2008	294	16.11	-0.56	11.53	0.002595833	541.9649123	367.0695802	38258	30.51493056	6.7505278
2008	295	10.56	2.78	8.42	0	250.8	217.2820028	38106	30.50895833	7.4180208
2008	296	9.44	0.56	7	0	256.554386	281.3326044	37955	30.49016204	7.1315903
2008	297	12.22	0.56	9.01	0	359.8245614	390.2720612	37804	30.40030093	6.4214306
2008	298	13.89	6.67	11.9	1.540483333	290.6175439	167.6808392	37655	30.24592593	6.6450139
2008	299	14.44	3.33	11.39	0.005191667	400.4912281	43.15066521	37507	30.18222222	8.8538194
2008	300	16.67	3.89	13.15	0	494.9824561	364.9315329	37361	30.90180556	9.3158333
2008	301	8.89	3.89	7.51	0.007791667	161.8526316	251.9830713	37215	32.37474537	9.1909028
2008	302	6.67	1.11	5.14	0.18833125	153.4105263	98.94246176	37071	33.109375	7.5409792
2008	303	4.44	-0.56	3.07	0.001297917	122.6666667	103.6515923	36928	33.24222222	5.7025069
2008	304	8.89	-0.56	6.29	0	257.7403509	369.0951695	36787	33.3175	5.2921875
2008	305	18.33	3.33	14.21	0	592.1684211	351.7090076	36647	33.31782407	5.3996597
2008	306	17.78	4.44	14.11	0	540.7368421	231.4742118	36509	33.28229167	7.6056111
2008	307	9.44	3.89	7.92	0	182.1403509	187.2377103	36372	33.06113426	7.7798611
2008	308	14.44	7.22	12.46	0	300.322807	258.375031	36237	32.50912037	8.0317361
2008	309	13.89	8.89	12.51	0.01	218.3298246	100.4017395	36103	31.59381944	8.765625
2008	310	18.33	8.89	15.74	0	454.7368421	257.0485669	35971	30.93571759	9.9339583
2008	311	20	10	17.25	0	519.4947368	242.4719176	35841	30.54409722	10.764653
2008	312	21.67	9.44	18.31	0.24	645.9719298	308.8003248	35713	30.53717593	11.434653
2008	313	12.78	4.44	10.49	0	301.1508772	134.4137582	35586	31.18328704	10.530208
2008	314	8.33	1.67	6.5	0	195.6070175	146.6516271	35462	30.90847222	8.4573611
2008	315	3.89	0.56	2.97	0	84.36491228	155.6687512	35339	31.8399537	6.7277917
2008	316	4.44	0	3.22	0	111.4736842	123.6229308	35219	32.83215278	5.7344931
2008	317	10	0.56	7.4	1.51	276.2175439	228.2574359	35100	32.85576389	5.8907014
2008	318	8.89	5.56	7.97	0	115.0035088	38.74857078	34984	32.97011574	6.5223889
2008	319	11.67	8.33	10.75	0.59	135.8245614	94.88379696	34870	33.18050926	8.1068056
2008	320	13.33	2.22	10.28	0.05	374.4701754	41.89573923	34759	33.24527778	9.5931944
2008	321	5	0.56	3.78	0.04	115.4596491	114.7539612	34649	33.28775463	7.8967708
2008	322	2.78	-3.89	0.94	0	137.4175439	119.3574779	34542	33.3318287	6.5408333
2008	323	-0.56	-6.67	-2.24	0	103.4105263	215.6341251	34438	33.2637037	4.4420139
2008	324	0	-5.56	-1.53	0	99.83157895	222.922472	34336	33.25009259	2.5302014
2008	325	3.89	-2.78	2.06	0.15	147.677193	126.9326752	34237	33.03983796	3.0032153
2008	326	-1.11	-6.67	-2.64	0	92.70175439	141.2762742	34140	32.8505787	2.4755417
2008	327	-1.67	-6.11	-2.89	0	74.85614035	179.2016683	34046	33.15354167	1.3735347
2008	328	2.78	-6.67	0.18	0.68	173.9508772	289.8008482	33954	33.32949074	0.99795139
2008	329	2.22	-5.56	0.08	0.94	147.7754386	81.5214079	33866	33.43196759	0.73526389
2008	330	3.89	0	2.82	0.05	96.26666667	162.728952	33780	33.55775463	1.0408681
2008	331	1.67	0	1.21	0	39.15789474	90.9198445	33697	33.62037037	1.2727778
2008	332	5.56	-2.22	3.42	0	183.4526316	263.3917544	33618	33.69398148	1.5092083
2008	333	5.56	-1.11	3.72	0	164.3087719	229.6326884	33541	33.78481481	1.6564792
2008	334	5.56	-3.33	3.11	0.73	200.645614	268.2057549	33467	33.79951389	2.5903611
2008	335	3.89	0	2.82	0.41	96.26666667	25.89807468	33397	33.90930556	2.771625
2008	336	6.11	0	4.43	0	159.4596491	120.3406043	33329	33.92712963	4.3422361
2008	337	2.22	-5	0.24	0	140.3578947	121.3659402	33265	33.96740741	5.4992778
2008	338	6.67	-4.44	3.61	0	246.7719298	271.7797253	33204	33.96467593	4.6442222
2008	339	7.78	-3.89	4.57	0	272.2807018	29.142883	33146	33.99295833	4.9441528
2008	340	-1.67	-8.33	-3.5	0	102.2736842	141.4201015	33092	33.99295833	3.4279722
2008	341	-1.67	-8.33	-3.5	0.03	102.2736842	134.0420084	33041	33.88612395	1.9726458
2008	342	-3.89	-9.44	-5.42	0	76.76491228	144.8592732	32993	34.62776	1.1521111
2008	343	-1.11	-8.89	-3.25	0	118.2526316	78.60147501	32949	34.72149149	0.58923611
2008	344	11.67	-2.22	7.85	1.47	380.6105263	176.9446656	32909	35.35685508	0.73679861
2008	345	12.22	-1.11	8.56	1.365	386.2526316	30.39005841	32872	35.27885413	2.5222083
2008	346	1.67	-1.11	0.9	1.145	62.37894737	20.18929289	32838	35.17796342	3.4170208
2008	347	1.67	-6.11	-0.47	0	142.4561404	76.9372714	32808	35.02828139	4.8739861
2008	348	-0.56	-6.11	-2.08	0	96.21052632	241.9216033	32782	34.76038828	4.9207153
2008	349	9.44	-1.67	6.39	0.265	294.477193	251.2587381	32759	34.18826283	5.0205625
2008	350	13.89	-1.67	9.61	0.315	459.7824561	70.74098962	32740	33.63069282	6.1909444
2008	351	1.11	-2.22	0.19	1.07	70.59649123	68.16776678	32724	33.34824426	5.5526389
2008	352	3.33	-0.56	2.26	0	92.91929825	40.82190022	32712	33.21887467	4.5296111
2008	353	2.22	-0.56	1.46	3.18	64.64561404	88.91077544	32704	33.14230557	5.4728472
2008	354	5.56	-4.44	2.81	0.02	216	15.4468944	32699	33.11147648	5.1498681
2008	355	-2.78	-5.56	-3.54	0.12	46.58245614	137.640712	32698	33.28209306	5.4764236
2008	356	1.67	-15.56	-3.07	0	214.0280702	182.3404789	32701	33.90752261	5.3383056
2008	357	-7.78	-14.44	-9.61	0	66.78596491	261.2881035	32707	33.68909231	3.346675
2008	358	1.11	-11.11	-2.25	3.335	179.6561404	149.4164502	32717	33.47635976	1.271452297
2008	359	9.44	-0.56	6.69	0.315	276.5824561	44.81274633	32731	33.34846151	1.090607123
2008	360	0	-5.56	-1.53	0	99.83157895	173.5758649	32749	33.27647431	0.95866396
2008	361	2.78	-4.44	0.79	0.36	145.5578947	183.3182179	32770	33.21012561	1.288060528
2008	362	9.44	0	6.85	0.01	266.8421053	127.746539	32794	33.13796066	1.207787415
2008	363	12.22	0	8.86	0	369.1719298	142.5615136	32822	33.05423233	1.118287507
2008	364	6.67	-1.11	4.53	0	196.8912281	258.5131795	32854	32.9594245	1.07861229
2008	365	3.89	-1.11	2.51	0.08	118.4	262.1079996	32889	32.80197101	1.037091714
2009	1	1.67	-9.44	-1.39	0	264.1864349	155.0455539	32928	36.40344444	1.305765086
2009	2	-1.67	-9.44	-3.81	0	252.0662643	277.2813078	32971	36.81037634	1.311153017
2009	3	5.56	-5.56	2.5	0	338.4527851	154.4734834	33017	36.30310484	1.03277658
2009	4	1.11	-7.78	-1.33	0	169.1340428	250.4367628	33066	35.79583333	1.163882902
2009	5	3.89	-7.22	0.83	0.01	266.6382496	130.8097467	33119	35.17452381	1.012122845
2009	6	3.89	-3.33	1.9	0.44	227.4430348	186.7836925	33175	34.63710027	1.098329741
2009	7	0	-3.33	-0.92	1.83	50.3711006	35.42534754	33234	34.62479167	1.101023707
2009	8	2.22	-3.33	0.69	0	165.2672999	35.77024267	33296	32.52666667	1.072288075
2009	9	-2.22	-5.56	-3.14	0	139.4944835	142.8110425	33362	32.29875706	1.163882902
2009	10	-2.78	-5.56	-3.54	0.955	49.44759858	211.1762735	33431	32.26555556	1.052532328
2009	11	-0.56	-5.56	-1.93	0.095	108.3172789	52.56209892	33503	32.12949275	0.916038075
2009	12	-3.33	-6.11	-4.1	0	119.1433274	124.0813008	33579	32.35206897	0.986081178
2009	13	-0.56	-6.67	-2.24	0	110.799546	187.169623	33657	32.26044444	0.99685704
2009	14	0.56	-12.78	-3.11	0.085	98.79150683	92.89187267	33738	32.70932058	0.829831178
2009	15	-7.78	-13.33	-9.31	0.165	98.60923509	191.2382177	33822	33.15819672	0.556842672
2009	16	-8.89	-17.22	-11.18	0	94.76454865	195.8472972	33909	33.5120073	0.403286638
2009	17	-13.33	-18.89	-14.86	0	68.80729022	272.8107297	33999	33.75900344	0.68435704
2009	18	-6.67	-19.44	-10.18	0.23	44.73166455	213.4915229	34092	33.16170264	0.047488889
2009	19	-3.33	-7.78	-4.56	0.04	102.9768209	115.1936116	34187	32.20847418	-0.21462903
2009	20	-4.44	-12.22	-6.58	0	118.3555004	198.6965145	34285	31.1200463	0.082810485
2009	21	-3.89	-12.78	-6.33	0	155.8506765	153.4316873	34386	31.16522782	0.38025
2009	22	-4.44	-12.78	-6.74	0	150.5775132	254.0363014	34489	33.23032581	0.39339286
2009	23	4.44	-5.56	1.69	0	233.9671771	303.8885966	34595	33.93819444	0.25382114
2009	24	10.56	-2.78	6.89	0.00445	438.592215	286.1560672	34703	33.9812963	-0.11903125
2009	25	-1.11	-12.78	-4.32	0.018333333	108.7026327	191.2816683	34814	34.194375	0.013
2009	26	-7.22	-12.78	-8.75	0.000683333	107.2715216	133.0920804	34926	34.34435523	0.12415254
2009	27	-2.78	-10.56	-4.92	0.009583333	153.6160651	253.7081217	35042	34.45858796	-0.22626437
2009	28	-2.78	-6.67	-3.85	1.365966667	67.40931715	137.0974146	35159	34.5029602	-0.26368116
2009	29	1.67	-8.33	-1.08	0.008666667	211.3752309	56.87618346	35278	34.47847418	-0.23575862
2009	30	-0.56	-8.33	-2.69	0.087966667	154.5088648	275.4467797	35400	34.42847222	-0.14846667
2009	31	0	-11.11	-3.06	0.001216667	203.5899768	196.1663711	35523	34.43331019	-0.10849563
2009	32	-1.11	-11.67	-4.01	0	164.3049002	324.5517125	35649	34.39	-0.06852459
2009	33	9.44	-1.11	6.54	0.060466667	152.2796808	331.9759895	35776	34.43969907	-0.12423358
2009	34	3.89	-4.44	1.6	0.004133333	147.6905964	70.00790976	35905	34.49960648	-0.11069072
2009	35	1.67	-8.89	-1.24	0.09065	176.1774139	253.5008048	36036	34.51152778	-0.297
2009	36	-3.89	-16.11	-7.25	0.001	147.1429927	217.5034422	36169	34.60583333	-0.28050704
2009	37	-7.22	-15.56	-9.51	0	139.7014676	362.013222	36303	34.64203704	-0.097381944
2009	38	3.33	-8.33	0.12	0	237.8874798	360.4623765	36440	34.59120567	0.096280576
2009	39	12.78	-2.78	8.5	0.000316667	419.5200398	217.6037947	36577	34.60002315	-0.10230827
2009	40	10.56	-2.22	7.04	0	386.0580639	216.7615209	36716	34.62097902	0.92085417
2009	41	7.22	-2.22	4.62	0.157616667	200.2813618	341.0010853	36857	34.61939815	2.5619167
2009	42	10	2.78	8.01	0.013283333	279.2561642	85.07354253	36999	34.65763889	4.5452292
2009	43	16.67	5	13.46	0.499733333	600.4362025	260.6041515	37143	34.6718287	5.1954161
2009	44	6.11	1.11	4.74	0.0026	318.3311801	86.93394481	37287	34.67101852	4.6015069
2009	45	2.22	-0.56	1.46	0.107133333	167.2721316	72.22969038	37433	34.66444444	4.5541866
2009	46	0.56	-5	-0.97	0.005033333	227.6195056	123.0332881	37581	34.66488426	3.9589648
2009	47	2.22	-5.56	0.08	1.67E-05	272.1943102	351.0557396	37729	34.67377315	3.1679722
2009	48	0.56	-7.78	-1.74	0	236.7528368	228.1077114	37879	34.76548611	2.3843819
2009	49	3.33	-7.78	0.28	0.480608333	161.2265878	385.4023245	38029	34.86030093	2.3446736
2009	50	4.44	-1.67	2.76	0.280633333	194.6061353	38.35342186	38181	34.89310945	2.6572153
2009	51	2.22	-8.89	-0.83	0.008408333	251.1921475	190.9096885	38334	35.09164352	1.239
2009	52	-3.89	-8.89	-5.26	0	223.1231013	225.5153169	38487	35.20141204	1.0730486
2009	53	3.33	-7.22	0.43	0.093208333	260.7307378	391.3288132	38642	35.25375	1.4689583
2009	54	0	-6.67	-1.83	0.049475	229.8927661	202.9565957	38798	35.31539352	0.7685
2009	55	-3.89	-11.11	-5.87	0	188.3726894	209.4387226	38954	35.33287037	0.24364539
2009	56	-0.56	-11.11	-3.46	0	249.314548	429.0285597	39111	35.37821759	0.27820139
2009	57	8.33	-7.22	4.06	0.015366667	428.006074	414.2311747	39269	35.48212963	0.53096503
2009	58	12.78	2.78	10.03	0.744733333	279.7922266	197.8326063	39428	35.58655093	1.4991181
2009	59	12.78	-3.89	8.19	0.000133333	487.0341169	86.0709829	39587	35.67835648	1.97025
2009	60	1.67	-4.44	-0.01	0	345.0601914	354.4487634	39747	35.78659722	1.4355694
2009	61	3.89	-8.33	0.53	3.33E-05	354.7241505	289.1103315	39907	35.88256944	0.42988194
2009	62	-5.56	-13.89	-7.85	0	201.4583111	340.3241739	40068	36.21586806	0.10120833
2009	63	-2.22	-13.89	-5.43	0	249.8397379	454.3288839	40230	36.38939815	0.017548611
2009	64	2.78	-11.11	-1.04	0	353.4684994	460.430506	40392	35.55351852	0.15365278
2009	65	11.67	-7.22	6.47	0	543.6752737	439.2025151	40555	35.59722222	0.66461111
2009	66	20	8.33	16.79	0.004733333	744.2677937	296.3650474	40718	35.5787963	3.7816389
2009	67	21.67	12.78	19.22	0.840566667	457.0879083	174.0303801	40882	35.56122685	5.9666567
2009	68	15	6.11	12.56	0.508116667	356.2603444	44.59771963	41046	35.59685185	5.6019375
2009	69	10	1.67	7.71	0.06885	242.4558126	118.2215482	41210	35.61606481	5.1538889
2009	70	7.22	2.22	5.85	0.024183333	404.9297895	78.0172568	41375	35.66780093	5.7224861
2009	71	17.22	-2.78	11.72	3.33E-05	795.2153365	390.1841358	41540	35.70983796	4.4729653
2009	72	2.78	-5	0.64	0	319.2155879	317.3720177	41705	35.71636574	3.6839097
2009	73	6.67	-5	3.46	0	326.2932209	466.8058276	41870	35.73819444	4.0167569
2009	74	11.11	-1.11	7.75	0	333.8742675	389.5550718	42036	35.7575	5.3775
2009	75	13.89	2.22	10.68	0.651216667	274.9745386	392.044595	42202	35.77921296	5.8937986
2009	76	11.67	3.33	9.38	0.127316667	267.5401823	124.9391758	42368	35.78939815	6.1842361
2009	77	12.78	2.78	10.03	0	448.9978894	256.0915503	42534	35.76930556	6.4316736
2009	78	22.78	3.89	17.58	0.003683333	1053.709672	434.3761973	42701	35.76074074	7.2580139
2009	79	12.78	-2.22	8.65	0.004033333	629.3741589	321.2826183	42867	35.7575463	5.1695208
2009	80	6.67	-6.11	3.15	0	449.3988361	337.8049172	43033	35.71594907	3.8344097
2009	81	8.33	-6.11	4.36	0	434.1245019	406.4468056	43200	35.70331019	4.0360347
2009	82	12.22	-3.33	7.94	0	772.7372812	355.0930683	43366	35.89094907	3.8345833
2009	83	7.78	-6.67	3.81	0	602.8603107	528.8867755	43533	35.89615741	2.7949514
2009	84	8.89	-6.11	4.76	0.000116667	618.5631465	512.8243438	43699	35.92881944	2.9203194
2009	85	10	2.22	7.86	1.215633333	109.8442733	258.5353699	43865	36.02349537	3.8422847
2009	86	5.56	1.67	4.49	0.001033333	272.2866165	45.54219658	44032	36.11481221	4.9702917
2009	87	14.44	2.78	11.24	0.335508333	168.8633258	400.4028463	44198	36.20511574	6.2806042
2009	88	12.22	7.22	10.85	0.7059	227.6366565	89.91249465	44363	36.29740741	6.885375
2009	89	10.56	1.11	7.96	0.068941667	343.3438813	145.1713041	44529	36.40916667	5.7956667
2009	90	3.89	0	2.82	0	353.6276041	159.5307081	44695	36.40706019	5.8615486
2009	91	16.11	0.56	11.83	0.710925	256.8713881	507.5134195	44860	36.36849537	6.4999722
2009	92	8.89	6.11	8.13	0.019375	314.3319836	105.789628	45025	36.28526807	7.4726667
2009	93	18.89	6.67	15.53	1.815816667	278.580352	461.6348971	45190	36.08184149	8.7207639
2009	94	15.56	3.33	12.19	0.02295	640.2511348	79.33589099	45354	36.15916667	7.1097431
2009	95	8.89	2.22	7.06	0	645.7900798	374.2813173	45518	36.29962963	7.0912917
2009	96	18.89	2.78	14.46	0.451816667	490.0568742	525.2196537	45681	36.28041667	7.6011319
2009	97	12.22	-1.11	8.56	0.01775	442.7006644	176.3503981	45845	36.25391204	5.661
2009	98	3.89	-0.56	2.67	0.001783333	422.2031368	243.2642859	46007	36.26678241	5.483375
2009	99	10	-0.56	7.1	0	604.6907822	351.3453616	46169	36.28263889	5.8261528
2009	100	15	1.11	11.18	0.184116667	399.0540823	542.5718849	46331	36.300625	6.1642778
2009	101	9.44	3.89	7.92	0.205133333	503.8963151	102.5447389	46492	36.30666667	7.0421806
2009	102	12.78	-1.11	8.96	0	778.1438675	444.5026901	46653	36.30143519	6.3841597
2009	103	10	-2.78	6.49	0.000966667	547.4747602	572.1304552	46813	36.31826389	5.4020208
2009	104	12.78	-1.11	8.96	1.050633333	119.0061886	368.7307332	46972	36.36740741	5.9942361
2009	105	7.78	5	7.01	1.37	116.3689887	46.34452908	47131	36.41729167	6.1990556
2009	106	7.78	-0.56	5.49	0.000516667	416.5154791	127.4696864	47289	36.49738426	6.8083681
2009	107	18.33	1.11	13.6	0	1103.46758	564.2099018	47446	36.51384259	7.6682222
2009	108	21.11	4.44	16.53	0	1361.317267	569.9938238	47602	36.46877315	8.5575
2009	109	23.33	10.56	19.82	0.003033333	1347.874024	541.9207463	47758	36.43196759	9.3679167
2009	110	20	5	15.88	0.924775	348.6805386	298.7421523	47912	36.47150463	8.2972917
2009	111	7.78	4.44	6.86	0.536141667	175.0739881	73.9256231	48066	36.54534722	7.9697292
2009	112	17.22	5	13.86	0.023133333	482.297071	306.7959311	48219	36.56875	7.5960833
2009	113	11.11	2.22	8.67	0.143816667	464.8843314	330.8135415	48370	36.36983796	7.2961806
2009	114	12.78	3.33	10.18	0.030466667	606.7031419	394.161765	48521	35.36055556	8.0230486
2009	115	23.89	5	18.69	0	1212.598359	434.9593392	48671	34.55884259	10.597361
2009	116	30	13.89	25.57	0	2066.634528	432.1242549	48819	33.47071759	12.451761
2009	117	31.11	15	26.68	0	2221.143246	546.1681371	48966	33.42460648	13.720208
2009	118	32.22	16.67	27.94	0	1939.849546	541.3218154	49112	33.27037037	14.480903
2009	119	29.44	6.67	23.18	0.0001	1225.275917	493.4652334	49257	34.28041667	13.308819
2009	120	19.44	7.22	16.08	0.090716667	512.5185758	402.8471893	49401	33.6543287	11.879444
2009	121	17.22	11.11	15.54	0.344066667	329.7594936	118.7372182	49543	33.22412371	12.495903
2009	122	21.67	11.11	18.76	0.6231	726.5510594	233.1827788	49683	32.65868421	13.075315
2009	123	17.78	8.33	15.18	0.264616667	280.056739	326.1133011	49823	32.34023474	11.48007
2009	124	14.44	8.33	12.76	1.5003	146.8725817	177.5458567	49960	32.83717593	11.132778
2009	125	11.11	9.44	10.65	0.673058333	196.1258044	78.52561083	50096	33.30787037	10.520347
2009	126	13.33	9.44	12.26	0.68195	211.5938044	127.9462881	50231	33.69745921	10.343472
2009	127	18.89	11.11	16.75	0.897275	522.6763283	230.7450906	50363	34.69513889	10.591319
2009	128	21.11	11.11	18.36	0.219233333	366.700773	325.696267	50495	34.73236111	10.119931
2009	129	22.22	12.78	19.62	0.023866667	757.6694342	263.7159845	50624	34.28416667	10.86625
2009	130	24.44	8.89	20.17	0.001066667	1085.621956	307.7087545	50751	34.75333333	10.508611
2009	131	15.56	6.11	12.96	0.02545	368.7424103	261.8315742	50877	34.91893519	9.2933333
2009	132	15.56	3.89	12.35	0.008583333	620.5911312	217.8732941	51000	34.94328704	9.3982639
2009	133	16.67	4.44	13.31	0	702.4807696	483.4381675	51122	34.98638298	9.8815278
2009	134	21.67	7.22	17.69	1.647083333	282.4456908	479.5092992	51241	35.02928241	11.155556
2009	135	20	11.11	17.56	0.424166667	606.2392927	242.6118813	51358	35.01606481	12.180972
2009	136	24.44	11.11	20.78	1.875883333	472.1160068	503.6610067	51473	34.71625	13.180417
2009	137	26.11	7.78	21.07	0.455283333	1279.800578	327.6518823	51586	33.79076389	12.117014
2009	138	15	3.89	11.94	0	799.4811004	499.9752597	51697	33.76145833	9.5816667
2009	139	15.56	2.78	12.04	0	674.835982	604.3722614	51805	34.55613426	9.3108333
2009	140	22.22	5.56	17.64	0	1029.752062	598.2218455	51910	34.97449074	10.645833
2009	141	28.33	11.11	23.6	0	1433.767087	585.7771946	52014	35.0462963	12.057708
2009	142	29.44	13.89	25.17	0.00005	1243.95323	597.8737192	52114	35.08081019	13.387708
2009	143	28.89	15.56	25.22	0.097833333	798.0652995	447.9868996	52212	35.12733796	14.820139
2009	144	27.78	15.56	24.42	0.219808333	616.3887921	352.2021679	52308	35.10594907	15.325139
2009	145	29.44	16.11	25.78	0.215925	1196.570604	385.4783015	52400	35.15634259	16.022708
2009	146	26.11	12.22	22.29	0.580183333	513.7200429	532.2553629	52490	35.19053613	14.220208
2009	147	12.78	9.44	11.86	0.1383	127.795897	92.49831675	52577	35.00439815	12.826389
2009	148	16.67	10.56	14.99	0.526358333	156.1560378	162.9570088	52662	33.95851852	14.164028
2009	149	22.78	16.67	21.1	1.356208333	345.4430767	231.3654703	52743	33.21655093	15.300278
2009	150	20	12.78	18.01	8.33E-05	761.5117931	184.9645217	52821	33.0325463	14.519236
2009	151	21.67	10	18.46	0	917.7313413	544.0036298	52896	33.09013889	13.528969
2009	152	21.11	5	16.68	0.002316667	748.3944377	546.4939115	52969	33.17564815	12.665263
2009	153	22.78	8.33	18.81	0.405066667	391.0654887	477.6434632	53038	33.23094907	14.09662
2009	154	23.89	15.56	21.6	1.566466667	162.8550763	323.5355818	53103	33.00412037	14.358403
2009	155	16.67	11.11	15.14	0.04065	320.1857322	54.65613362	53166	32.66738426	13.530278
2009	156	17.78	11.11	15.94	0.610183333	142.9780977	217.9634382	53225	32.23064815	13.385035
2009	157	14.44	12.22	13.83	0.05565	457.0342452	73.79384771	53281	31.85393519	13.910694
2009	158	24.44	12.78	21.24	0	781.4197036	556.5243934	53334	31.448125	14.636944
2009	159	27.22	15.56	24.01	1.172641667	665.3370689	531.5557575	53383	31.10261574	16.069861
2009	160	27.78	18.33	25.18	0.816958333	607.6812536	390.751633	53429	30.76784722	16.911944
2009	161	28.33	16.67	25.12	0.053866667	534.0691892	371.963008	53471	30.57752315	16.144375
2009	162	25	17.78	23.01	0.770391667	246.4732931	323.1155111	53510	30.87694444	15.713681
2009	163	22.22	17.78	21	0.602158333	384.3381698	157.7462929	53546	32.10136574	15.831773
2009	164	23.89	16.11	21.75	0	696.7668218	266.0981391	53577	31.84634259	14.994444
2009	165	25	11.11	21.18	0.000166667	901.0650168	364.0599933	53606	31.61342593	14.311944
2009	166	25	12.78	21.64	0	948.8202684	561.4360619	53630	31.36344907	14.550208
2009	167	26.67	15	23.46	0	568.0934847	550.5218356	53651	31.12	14.813681
2009	168	22.22	15.56	20.39	1.91045	280.2558962	188	53669	31.01252315	14.749792
2009	169	16.67	13.89	15.9	0.416083333	268.2314446	135.68088	53682	32.39511574	14.949028
2009	170	21.67	15.56	19.99	0	551.8582417	214.8344291	53693	32.11583333	15.436806
2009	171	24.44	16.11	22.15	3.7643	322.3490787	340.8653606	53699	31.91215278	14.984236
2009	172	24.44	16.67	22.31	0.360316667	646.0100973	146.2408476	53702	31.80513889	13.860417
2009	173	23.89	15.56	21.6	1.67E-05	828.393316	276.2871455	53701	31.70576389	13.600972
2009	174	27.22	15.56	24.01	0	1047.297317	400.843899	53696	32.2744213	13.919306
2009	175	27.22	14.44	23.71	0.0001	1122.611537	558.2149084	53688	32.78601852	14.368542
2009	176	29.44	16.11	25.78	0	996.8158224	575.9127916	53676	34.79856481	15.527063
2009	177	30.56	18.89	27.35	0.1578	778.0274218	507.4936546	53661	35.7437963	17.334306
2009	178	26.67	15.56	23.61	0	921.1815165	403.7957905	53641	34.78590278	17.282639
2009	179	26.67	15.56	23.61	0.036816667	359.5379371	491.8327086	53619	32.39832192	16.494514
2009	180	21.11	13.89	19.12	0.392533333	571.5133907	116.2824116	53592	32.148921	16.717708
2009	181	26.11	15.56	23.21	1.373766667	317.4763943	487.6221388	53562	34.22512731	16.765069
2009	182	22.78	13.89	20.33	0.00705	384.479247	309.9693998	53529	33.34094907	16.368125
2009	183	24.44	15	21.85	1.606516667	292.929466	338.1314988	53491	32.94358974	16.671458
2009	184	22.22	15.56	20.39	0.00525	508.6422429	242.0939926	53451	32.67219907	16.460903
2009	185	22.22	15	20.24	0	843.0129499	313.2517086	53407	32.46013889	16.614931
2009	186	23.33	11.11	19.97	0	777.5442578	469.425514	53359	32.27224537	15.881875
2009	187	23.89	12.22	20.68	0	853.5576772	547.6865574	53308	32.66261574	15.726597
2009	188	27.22	13.89	23.56	0	1176.476636	523.280993	53254	32.51123843	16.177639
2009	189	26.11	11.67	22.14	0	808.670287	512.0840101	53196	32.27222222	15.646528
2009	190	22.78	12.78	20.03	0	719.4379253	403.718453	53135	31.96170139	15.575
2009	191	26.11	13.89	22.75	0	704.8211986	450.6709691	53071	31.75913194	16.038403
2009	192	26.11	16.67	23.51	1.671016667	447.6598914	412.1833069	53004	31.47298611	16.901042
2009	193	25.56	17.22	23.26	0.033116667	901.6685182	259.7328699	52933	31.11743056	17.313194
2009	194	25	14.44	22.1	0.000566667	1029.287788	547.7308551	52860	31.09565972	16.240625
2009	195	24.44	11.11	20.78	0.017533333	973.6450359	547.9027907	52783	32.33829861	15.349097
2009	196	25	11.11	21.18	0.000616667	832.3341124	585.0799195	52703	31.90309028	15.363611
2009	197	27.78	13.33	23.81	0.390866667	986.6266601	537.9431965	52620	31.51892361	17.270694
2009	198	30	18.33	26.79	0.475958333	450.5324709	469.2875036	52535	30.98148551	17.057986
2009	199	22.78	13.89	20.33	0.791058333	540.2532892	156.5801205	52446	30.38295139	16.524236
2009	200	20.56	13.33	18.57	0.0065	532.8747459	291.0120141	52355	30.061875	15.969722
2009	201	23.89	14.44	21.29	0	675.0930108	439.14927	52261	29.78583333	16.192431
2009	202	26.11	15.56	23.21	0.097	693.6484257	380.9887854	52164	29.19309028	17.101944
2009	203	25	15.56	22.4	0.500133333	372.1661505	389.7421492	52065	28.83989583	17.117361
2009	204	25	16.67	22.71	2.318016667	320.5875517	253.5307815	51963	28.59600694	18.134653
2009	205	25.56	17.22	23.26	0.1648	532.685326	273.2542134	51858	28.28256944	18.150764
2009	206	26.11	15	23.06	0.383116667	481.6771529	418.1852331	51751	27.93320611	17.540903
2009	207	27.78	16.67	24.72	0.291816667	476.1631711	384.4510476	51642	26.30358685	18.145069
2009	208	26.11	18.33	23.97	0	732.9878967	324.7343295	51530	24.79835338	18.231528
2009	209	27.78	17.22	24.88	0	788.7211924	458.2545462	51417	24.53901643	18.247329
2009	210	28.89	18.33	25.99	1.169833333	256.614042	470.5817154	51300	27.10219697	17.979306
2009	211	22.78	18.33	21.56	0.069583333	508.5388685	163.5237584	51182	30.06131713	18.593403
2009	212	27.78	19.44	25.49	1.46685	246.626154	365.4246602	51062	26.59839352	18.896111
2009	213	22.22	16.67	20.69	0.0032	528.009103	122.565441	50939	25.71568287	18.848252
2009	214	27.22	17.22	24.47	0.120166667	503.28073	506.6144249	50815	25.97347585	18.899375
2009	215	25.56	14.44	22.5	0	667.5599216	272.2438644	50688	26.72284722	18.215694
2009	216	25.56	15.56	22.81	0	624.4665166	507.4447785	50560	26.19881944	17.996181
2009	217	28.33	16.67	25.12	0	756.4169314	494.616855	50430	25.96178571	18.611875
2009	218	26.11	12.78	22.44	0	846.0942866	320.9862619	50298	25.21430556	17.328472
2009	219	25	12.22	21.49	0	668.5008427	428.4242485	50164	25.06145833	16.308403
2009	220	24.44	13.89	21.54	0.027166667	634.6702583	421.8924624	50029	25.19868056	16.915556
2009	221	26.11	16.11	23.36	0.42765	442.6475989	406.1789064	49892	25.05777778	18.314514
2009	222	29.44	20	26.85	0.216141667	806.3058002	245.3757889	49754	24.94625	19.971042
2009	223	32.22	20	28.86	0.231791667	614.5217081	433.2942315	49614	24.66743056	19.80125
2009	224	27.78	18.33	25.18	1.749625	449.6914643	273.9751375	49472	24.30631944	19.305903
2009	225	26.67	16.67	23.92	0.089208333	530.6079843	277.6136834	49330	24.45444444	18.810556
2009	226	26.67	17.78	24.22	0	626.9497425	466.979425	49186	24.55	19.027708
2009	227	28.89	17.78	25.83	0	794.0750932	471.8079119	49040	24.54743056	19.527153
2009	228	30.56	19.44	27.5	0	901.5865104	517.4930666	48894	24.47270833	19.789783
2009	229	31.11	20	28.06	0	1105.731535	512.0612768	48746	24.32236111	20.020903
2009	230	32.78	20.56	29.42	0.431825	611.56991	520.5570508	48597	24.19458333	21.284722
2009	231	30.56	20.56	27.81	0.015741667	676.9374703	353.0740618	48446	24.10270833	23.918611
2009	232	29.44	20	26.85	0	749.152435	335.0939435	48295	24.09763889	20.680764
2009	233	29.44	20.56	27	0.485283333	492.655685	360.8208255	48143	23.76583333	20.711806
2009	234	26.67	18.89	24.53	0.001233333	559.8637232	286.8407377	47990	23.20659722	20.142431
2009	235	26.67	17.78	24.22	0	846.3101499	300.8905427	47836	23.22888889	19.537014
2009	236	25.56	14.44	22.5	0	576.5525923	432.6559426	47681	23.49152778	17.892403
2009	237	25.56	14.44	22.5	0	667.7699726	383.9634929	47525	24.04472222	18.07993
2009	238	27.22	16.11	24.17	0	897.3468059	508.4194604	47368	27.30472222	18.321818
2009	239	28.89	17.22	25.68	0.02615	534.4074612	462.4241898	47210	27.36753472	18.681449
2009	240	19.44	16.67	18.68	0.91275	219.3969411	128.512093	47052	27.264375	18.130833
2009	241	20	16.67	19.08	2.108033333	330.555097	72.7311539	46893	27.61951389	18.475625
2009	242	26.11	14.44	22.9	0	761.1388359	320.4080541	46734	26.9215625	17.095139
2009	243	22.22	11.11	19.17	0	540.8998917	480.1938247	46573	26.43454861	15.315208
2009	244	18.89	7.78	15.83	3.33E-05	474.5543285	398.0785771	46413	26.29333333	13.942681
2009	245	20.56	8.33	17.19	0	529.277754	538.6507319	46251	26.38371528	13.941319
2009	246	23.33	10	19.67	0	586.9153305	521.0623576	46089	26.64201389	14.1875
2009	247	23.89	10.56	20.22	0	627.404906	512.5118558	45927	26.58930556	14.759
2009	248	25	12.22	21.49	0	667.4029684	508.0795167	45764	26.53	15.289375
2009	249	25.56	12.78	22.04	0	723.5662468	474.4047149	45600	26.90982639	15.382569
2009	250	25	13.89	21.94	0.009341667	385.7817956	454.5401105	45437	27.02621528	16.127778
2009	251	20	17.22	19.24	0.003408333	409.4359562	150.4898834	45272	26.97	16.457917
2009	252	22.22	16.11	20.54	0.000916667	474.4212481	208.9722001	45108	27.07868056	16.514028
2009	253	22.78	15	20.64	0.013333333	708.5729684	236.9511826	44943	28.08392361	16.095417
2009	254	20	12.78	18.01	2.071841667	218.3804631	440.6224485	44778	28.56614583	14.365903
2009	255	15	12.22	14.24	0.056508333	192.5441047	62.22258086	44613	28.12850694	14.837222
2009	256	19.44	13.89	17.92	0	587.8569736	106.9569825	44447	28.08020833	15.717778
2009	257	24.44	15	21.85	0	598.2023368	477.8696958	44281	27.994375	16.315833
2009	258	23.89	13.89	21.14	0.00035	456.242422	328.4017228	44115	28.62017361	15.795833
2009	259	24.44	11.67	20.93	0	743.9274831	297.3866755	43949	31.66635417	15.388125
2009	260	19.44	11.67	17.31	0.010241667	315.1932069	387.5532056	43783	34.565	14.807361
2009	261	16.11	13.89	15.5	0.014991667	481.6589997	79.71882523	43617	34.73840278	15.145347
2009	262	23.33	10	19.67	0	668.9773209	431.1204143	43450	34.45614583	13.948194
2009	263	20	5.56	16.03	0	394.0091204	511.4600545	43284	34.13201389	12.514514
2009	264	23.33	6.11	18.6	0	470.319669	419.366955	43117	34.05239583	14.306875
2009	265	23.89	14.44	21.29	0.077166667	413.0755619	425.1073549	42951	32.86211806	15.720278
2009	266	23.33	18.33	21.96	0.454383333	323.0048201	146.6952599	42784	31.92552083	16.949931
2009	267	26.11	17.78	23.82	0	550.8505766	287.909733	42618	33.03954861	17.385139
2009	268	22.78	13.33	20.18	0	766.0699265	209.8487704	42452	33.25638889	15.969444
2009	269	20	12.22	17.86	2.91225	393.1857879	423.0745637	42286	33.79965278	13.946111
2009	270	14.44	11.67	13.68	1.75345	97.59836475	66.51524217	42120	33.93618056	13.713264
2009	271	16.67	12.22	15.44	0.7834	392.4936873	144.1699004	41954	33.96774306	13.072361
2009	272	20	11.11	17.56	0.0036	614.0463142	258.0364698	41788	29.04983796	12.514306
2009	273	13.89	10.56	12.97	0.002233333	474.1497003	80.00398818	41623	26.06988426	12.218403
2009	274	13.33	6.67	11.5	0	425.1628331	226.9404458	41458	30.70101852	10.714375
2009	275	12.78	3.89	10.33	0.634591667	132.6601074	243.7642458	41293	34.43180556	9.5915278
2009	276	15	5	12.25	0.372508333	279.36355	215.6805174	41129	34.59163194	11.628125
2009	277	18.89	7.78	15.83	0	395.4028318	364.3781369	40964	34.46138889	11.034792
2009	278	15.56	7.78	13.42	0	431.4231722	216.5545207	40801	34.4625	10.758681
2009	279	15.56	4.44	12.5	0	370.5361453	299.5252848	40637	34.51743056	9.8634722
2009	280	17.78	5	14.26	0.267583333	564.702324	375.2800316	40474	34.61621528	11.489028
2009	281	13.33	7.78	11.81	0	466.8655743	216.561148	40312	34.72833333	11.082153
2009	282	18.33	8.33	15.58	1.115225	171.0742548	346.520797	40150	34.46413194	11.949514
2009	283	17.78	11.67	16.1	0.475775	390.5188521	98.41761484	39989	34.08489583	12.361875
2009	284	14.44	5	11.85	0	373.7990604	209.3787285	39828	33.80319444	9.4352083
2009	285	12.78	3.89	10.33	0	340.3996733	336.8411526	39667	33.29232639	8.3238889
2009	286	9.44	3.89	7.92	0.005983333	283.6007623	134.8980966	39508	32.85111111	8.8835417
2009	287	13.33	0	9.67	3.33E-05	252.7312396	155.3075809	39349	32.56989583	7.3478889
2009	288	7.22	0.56	5.39	2.513708333	65.32204503	143.7659156	39191	32.26510417	6.3900278
2009	289	3.89	-0.56	2.67	1.276416667	39.74306619	41.64829759	39033	31.99774306	5.3090556
2009	290	1.67	0	1.21	0.679866667	44.46893486	105.1623624	38876	31.76395833	7.1488819
2009	291	3.89	0	2.82	0.185891667	193.5736985	86.93755165	38720	31.44677083	7.878125
2009	292	10	-1.11	6.94	0	279.1027575	257.0438221	38565	31.62878472	7.2495
2009	293	12.78	0	9.26	0	396.3782907	402.2132462	38411	32.03670139	7.8989514
2009	294	19.44	6.67	15.93	3.33E-05	513.2498888	342.0583407	38258	32.49378472	8.4956944
2009	295	21.11	7.78	17.44	0	743.1655047	279.9480397	38106	32.27583333	9.2440972
2009	296	21.67	8.33	18	0.837983333	421.5513789	314.7272296	37955	32.19913194	10.320556
2009	297	17.22	11.11	15.54	7.42895	347.2655167	117.1349064	37804	32.39753472	10.999375
2009	298	18.33	6.67	15.12	0	724.291248	136.2429425	37655	33.85416667	10.349653
2009	299	15	2.78	11.64	0	419.3229011	365.9718719	37507	33.91798611	9.1583333
2009	300	15.56	3.33	12.19	0.064833333	201.9614038	343.4797248	37361	33.91486111	9.4918056
2009	301	13.33	7.78	11.81	1.282408333	131.5099396	136.5894397	37215	34.02329861	10.869861
2009	302	15	11.11	13.93	4.17E-05	246.9586021	83.21016428	37071	34.20809028	11.242986
2009	303	13.33	10	12.42	0.013566667	246.492101	79.03531196	36928	34.13006944	11.132847
2009	304	14.44	11.11	13.53	0.110216667	391.4013184	58.89743659	36787	33.76229167	11.32875
2009	305	16.67	5.56	13.61	0	645.7503674	58.59573771	36647	34.27072917	10.024236
2009	306	11.67	-0.56	8.31	3.33E-05	308.9746219	300.2259717	36509	33.85461806	8.0511111
2009	307	12.78	0	9.26	0.032983333	442.227101	341.7961344	36372	33.80017361	7.8503472
2009	308	12.22	-1.11	8.56	0.001616667	384.6979668	277.2042388	36237	33.95072917	6.8950417
2009	309	7.78	-1.11	5.33	0.077083333	213.3716827	194.7745617	36103	33.99184028	6.7299792
2009	310	7.22	0.56	5.39	0	391.6988879	113.8939145	35971	33.920625	5.9724931
2009	311	7.78	-2.22	5.03	0	335.0895566	336.1670712	35841	33.92836806	4.5371667
2009	312	13.33	-2.22	9.06	0	394.3304765	306.7477949	35713	34.02336806	6.0293889
2009	313	21.11	5.56	16.83	0	457.0171514	315.5840499	35586	34.01125	7.0402708
2009	314	19.44	5.56	15.62	0	543.8915295	189.9116237	35462	34.163125	8.0282639
2009	315	14.44	5.56	12	0.015083333	742.7692553	138.9815218	35339	34.38201389	7.8113889
2009	316	10.56	2.22	8.26	0	635.896958	173.1909481	35219	34.54086806	6.8636319
2009	317	10	2.78	8.01	6.67E-05	609.4263692	186.6418803	35100	34.59697917	7.4306181
2009	318	15.56	5	12.65	0.003733333	362.9603322	271.4951978	34984	34.65875	9.0517361
2009	319	14.44	4.44	11.69	1.67E-05	298.1035457	133.4935475	34870	34.73420139	8.8938194
2009	320	19.44	5.56	15.62	0	734.7430277	276.6466239	34759	34.78291667	8.9436111
2009	321	12.78	5.56	10.79	0	794.3924701	289.2625473	34649	34.80770833	8.0251389
2009	322	8.89	2.78	7.21	0	365.799792	100.9619594	34542	34.8278125	6.7321181
2009	323	10	4.44	8.47	1.212533333	110.5722992	173.5931529	34438	34.81298611	7.9019444
2009	324	11.11	6.11	9.74	0.043433333	439.1936874	54.9111137	34336	34.79930556	8.0648611
2009	325	10	5	8.62	0	315.3315028	191.1826679	34237	34.80559028	7.692375
2009	326	10.56	5	9.03	0	191.8939447	116.415993	34140	32.44140741	6.567875
2009	327	8.33	3.89	7.11	0.046891667	215.7106532	80.56611643	34046	34.86002315	6.6001458
2009	328	9.44	4.44	8.07	0.679641667	79.92162581	92.74624492	33954	34.9065625	7.5488194
2009	329	9.44	6.67	8.68	0.029666667	100.914755	76.33266403	33866	34.84350694	8.0588889
2009	330	10.56	2.22	8.26	0.4603	98.29357923	92.60408526	33780	34.85232639	7.6048611
2009	331	10	2.22	7.86	0.246758333	323.7376413	140.3104727	33697	34.79434259	6.8093958
2009	332	5.56	1.67	4.49	0.036091667	219.0044832	100.8761378	33618	34.95190972	6.0658125
2009	333	5	0	3.62	0	273.8465278	97.60299335	33541	35.01774306	5.7882431
2009	334	16.11	0.56	11.83	0.126091667	443.3355542	253.7934981	33467	34.89736111	7.4085208
2009	335	11.11	-0.56	7.9	0.000958333	346.3394737	63.40611432	33397	32.17372454	5.9422569
2009	336	6.11	-2.22	3.82	0.656725	74.259888	119.4484083	33329	30.10986111	4.9800139
2009	337	12.78	-1.67	8.81	0.898241667	269.6985342	68.63177514	33265	34.75194444	6.8504236
2009	338	11.67	2.78	9.22	0.00245	404.3970804	58.21304662	33204	34.69107639	6.9154514
2009	339	5	-1.11	3.32	0.464875	103.075495	140.8872262	33146	34.65777778	5.6937222
2009	340	0.56	-3.89	-0.67	0.001691667	169.5391919	39.108425	33092	34.63104167	4.3867986
2009	341	0.56	-5.56	-1.12	0.002908333	114.5965167	283.8162586	33041	34.61513889	3.6805208
2009	342	1.11	-5.56	-0.72	0.000591667	191.6584817	88.95050465	32993	34.59263889	4.4396597
2009	343	3.33	-1.11	2.11	3.267383333	93.08141013	218.1263771	32949	34.56034722	3.0739306
2009	344	6.11	-3.33	3.51	0.002883333	362.2057389	154.7091677	32909	34.16246528	3.6578403
2009	345	-2.22	-10	-4.36	1.67E-05	241.5653984	166.6408798	32872	33.230625	3.4878681
2009	346	-2.78	-9.44	-4.61	0	243.8525446	204.1721177	32838	32.93371528	3.4310486
2009	347	2.22	-5.56	0.08	1.664683333	137.7923547	275.3377835	32808	33.01065972	3.5023194
2009	348	5	-0.56	3.47	0.000416667	126.5436996	51.09499115	32782	32.56309028	4.8304861
2009	349	7.78	2.78	6.4	0.1445	169.7839001	131.1490583	32759	32.02652778	5.8093958
2009	350	7.78	-3.89	4.57	0.01185	351.5186021	52.82345754	32740	31.29253472	5.2081458
2009	351	-1.11	-7.22	-2.79	0.001183333	194.6349855	233.9156582	32724	31.37736111	4.3485972
2009	352	-1.67	-6.67	-3.04	0	190.6060358	212.0011005	32712	32.27083333	4.2498958
2009	353	0	-6.67	-1.83	0.758841667	69.38089985	178.18591	32704	33.24354167	3.8502917
2009	354	-4.44	-7.22	-5.21	0.020958333	141.3702265	62.00299703	32699	33.39017361	3.3945903
2009	355	0	-6.11	-1.68	0.001766667	163.3830332	250.2578751	32698	33.43069444	3.1462569
2009	356	0.56	-3.33	-0.51	0.00515	181.8306143	200.249656	32701	33.65079861	3.2336181
2009	357	1.11	-9.44	-1.79	0	198.3102232	114.6239031	32707	33.58503472	1.8889375
2009	358	-1.67	-9.44	-3.81	0	130.5850733	276.4927713	32717	33.61420139	1.3978472
2009	359	0	-5.56	-1.53	0.436566667	66.77951248	271.6298005	32731	33.50670139	1.4609514
2009	360	6.11	-1.67	3.97	2.204083333	54.83178188	43.00454976	32749	33.93791667	2.694
2009	361	6.67	-2.78	4.07	0.003083333	160.2968077	50.7335978	32770	34.19336806	4.4764861
2009	362	5	-2.78	2.86	0.011341667	256.0515326	196.5332378	32794	34.26934028	4.4835764
2009	363	-2.22	-7.78	-3.75	0.049575	202.1849359	131.618122	32822	33.76378472	3.1323958
2009	364	-4.44	-9.44	-5.82	0	146.7228171	227.6367566	32854	33.95510417	2.3610625
2009	365	-1.67	-9.44	-3.81	0.426108333	66.96507975	174.9951656	32889	33.73538194	2.8001875
2010	1	0	-3.89	-1.07	0.021008333	111.5198336	85.07561953	32928	33.74569444	3.3550208
2010	2	2.78	-7.78	-0.12	0.079366667	216.0043044	110.3866428	32971	33.57079861	1.9498611
2010	3	-6.67	-11.11	-7.89	0.004641667	118.5879497	178.9096526	33017	33.52149306	0.68478472
2010	4	-6.11	-10.56	-7.33	0.005375	120.014054	82.91417166	33066	33.53548611	0.59078472
2010	5	-3.89	-7.78	-4.96	0.004258333	132.4565973	107.471542	33119	34.28989583	0.67027083
2010	6	-2.78	-7.78	-4.15	0.024658333	121.4258647	86.79933685	33175	35.03416667	0.6874375
2010	7	-1.11	-3.89	-1.87	0.000208333	165.2800878	66.69669615	33234	35.03493056	0.50720833
2010	8	-1.67	-6.11	-2.89	0.136158333	125.2094245	84.95921432	33296	36.06694444	0.13265278
2010	9	-4.44	-8.89	-5.67	0.005166667	176.6695034	209.6644086	33362	34.22694444	-0.061902778
2010	10	-2.78	-13.33	-5.68	0	146.0890171	292.5369268	33431	32.70520833	-0.19504167
2010	11	-4.44	-13.33	-6.89	0.016116667	127.458138	261.7366803	33503	33.11784722	-0.3151875
2010	12	-2.22	-9.44	-4.21	0.00085	147.7534395	156.5544537	33579	32.28138889	-0.34253472
2010	13	-2.22	-6.67	-3.44	0	169.3752225	206.6843747	33657	31.25951389	-0.35729861
2010	14	0	-7.78	-2.14	0	186.0429463	176.3264865	33738	30.82986111	-0.38402778
2010	15	7.22	-7.22	3.25	0	245.8080478	288.1660458	33822	30.696875	-0.2300625
2010	16	5.56	2.22	4.64	0	241.7271257	59.95647173	33909	30.59263889	-0.29741667
2010	17	9.44	-1.67	6.39	1.630925	67.46757635	170.790435	33999	30.51875	-0.19765972
2010	18	3.89	-1.11	2.51	0.043708333	129.5067224	26.47219289	34092	30.50048611	0.85484028
2010	19	6.11	2.22	5.04	0.014733333	179.3813113	203.5951093	34187	30.72631944	3.1945694
2010	20	4.44	-2.22	2.61	0	253.3243194	45.43497156	34285	30.84145833	3.9431389
2010	21	1.67	-7.22	-0.78	0	178.2963888	164.4032455	34386	30.68930556	2.9307569
2010	22	3.33	-6.67	0.58	0.065466667	242.7984897	294.5434776	34489	30.71986111	3.5284792
2010	23	2.78	-4.44	0.79	0	267.359495	103.8670328	34595	30.979375	3.1359514
2010	24	5	-5	2.25	1.057183333	142.2054918	298.4909374	34703	32.83194444	3.3073542
2010	25	13.33	1.67	10.12	4.141916667	284.4608514	68.47710691	34814	33.72375	4.3080139
2010	26	11.67	-1.67	8	0.027716667	387.2378933	77.96546985	34926	33.85965278	4.0292847
2010	27	0.56	-3.89	-0.67	0.003583333	234.7107231	176.6892301	35042	33.93923611	3.44525
2010	28	0.56	-3.89	-0.67	0.068183333	202.1964405	229.6415143	35159	33.97194444	3.0126042
2010	29	1.67	-13.33	-2.46	0	232.2756603	193.8167697	35278	33.95965278	1.6066736
2010	30	-7.22	-13.33	-8.9	0	153.0169118	276.4918644	35400	33.71486111	0.92202083
2010	31	-8.33	-13.89	-9.86	0	155.742414	142.3351068	35523	34.02291667	0.54586806
2010	32	-2.22	-13.33	-5.28	0	191.5766279	338.7432467	35649	34.11465278	0.52540278
2010	33	-1.11	-7.78	-2.94	0.048866667	149.8203472	258.1529517	35776	34.24194444	0.60979861
2010	34	1.67	-6.67	-0.62	0.1417	138.2543235	170.4110291	35905	34.414375	1.1078194
2010	35	1.11	-4.44	-0.42	0	282.8756916	113.4632035	36036	34.63895833	0.7266875
2010	36	3.33	-4.44	1.19	0.297025	169.1546818	336.3579861	36169	34.92194444	0.61854861
2010	37	1.11	-5.56	-0.72	1.478475	179.3266347	68.67597719	36303	35.28208333	0.040180556
2010	38	-2.22	-15.56	-5.89	1.67E-05	140.014984	205.5920143	36440	35.85708333	-0.14761111
2010	39	-2.22	-14.44	-5.58	1.67E-05	135.2405321	369.5466277	36577	36.23791667	-0.088347222
2010	40	-1.67	-10.56	-4.11	0.08035	77.78833028	401.6545103	36716	36.52243056	-0.045076389
2010	41	-2.22	-8.89	-4.06	0.891358333	61.59693208	131.9910465	36857	37.09708333	-0.10378472
2010	42	-2.78	-9.44	-4.61	0.002291667	139.1377205	104.2889808	36999	36.98847222	-0.065145833
2010	43	-1.11	-5.56	-2.33	3.33E-05	209.4065999	229.4715828	37143	36.93506944	-0.14604861
2010	44	1.11	-7.78	-1.33	0.000233333	211.6857332	340.1720171	37287	36.92291667	-0.14601389
2010	45	-3.33	-7.78	-4.56	0.014183333	137.1988201	192.6055619	37433	36.83625	-0.15883333
2010	46	-1.11	-9.44	-3.4	0.297308333	119.729269	126.4190948	37581	36.37944444	-0.17978472
2010	47	0.56	-9.44	-2.19	0.084291667	165.7281876	221.9893451	37729	36.44645833	-0.18041667
2010	48	-1.11	-6.67	-2.64	0.011191667	161.4629869	248.4792629	37879	36.54104167	-0.1025
2010	49	0.56	-5	-0.97	0.007591667	215.9663021	192.9330774	38029	36.50701389	-0.052694444
2010	50	2.78	0	2.01	0.000183333	320.3520665	270.4695529	38181	36.8625	-0.080673611
2010	51	4.44	-3.89	2.15	0	334.1611361	301.7261178	38334	37.34381944	-0.094708333
2010	52	5	-3.89	2.56	0	409.1621616	232.2372749	38487	37.63444444	-0.073534722
2010	53	7.22	-3.33	4.32	0.125525	253.520992	407.1309456	38642	37.77923611	-0.032194444
2010	54	4.44	-2.22	2.61	0.041291667	75.61425035	137.8104026	38798	37.92840278	0.004354167
2010	55	3.33	-0.56	2.26	0	263.6064599	104.6039945	38954	37.98118056	0.037979167
2010	56	2.78	-2.22	1.4	0.043733333	207.1322165	208.8667638	39111	38.409375	0.11599306
2010	57	0.56	-6.67	-1.43	0.315566667	120.0686571	222.8887927	39269	38.39736111	0.15908333
2010	58	-2.22	-5.56	-3.14	0.068416667	119.7091058	132.2950695	39428	38.44972222	0.17867361
2010	59	1.67	-3.89	0.14	0.043183333	187.3356345	272.2746861	39587	38.45645833	0.20672222
2010	60	4.44	-1.11	2.92	0.008058333	233.5345711	251.1958638	39747	39.36909722	0.1231875
2010	61	3.89	0	2.82	0.000425	243.5892452	165.3150575	39907	40.1603125	0.2749375
2010	62	3.33	-0.56	2.26	0.048066667	207.0671659	182.1579814	40068	39.92576389	0.66248611
2010	63	4.44	-2.78	2.46	0	394.4714723	115.5337808	40230	38.98079861	0.99575694
2010	64	5	-2.78	2.86	0	426.5389723	439.5047534	40392	38.666875	1.3973403
2010	65	7.22	-5	3.86	0	483.723969	419.4639872	40555	38.52777778	1.8483333
2010	66	9.44	-4.44	5.62	0	602.7230652	467.4409352	40718	38.01784722	2.7810694
2010	67	10.56	-1.11	7.35	0	646.133554	460.0942958	40882	38.31819444	3.5431667
2010	68	11.67	-0.56	8.31	0	594.5900011	461.4164596	41046	38.19763889	3.9467083
2010	69	15.56	1.11	11.58	0.000808333	679.1629471	454.4945402	41210	37.30326389	4.7127569
2010	70	15.56	2.22	11.89	0.002408333	541.3981871	261.2535589	41375	34.86236111	6.3004097
2010	71	18.89	3.89	14.76	0.818983333	178.3883097	421.2968946	41540	32.62388889	7.3489931
2010	72	10	5	8.62	2.895616667	123.9284277	64.10411222	41705	32.23576389	6.5555486
2010	73	8.33	5	7.42	0.880633333	103.5372274	55.12892286	41870	31.88375	5.1268681
2010	74	6.67	4.44	6.06	0.045566667	196.7819722	65.61390237	42036	31.60590278	5.3865833
2010	75	6.67	4.44	6.06	1.67E-05	528.4148953	78.1147339	42202	31.47986111	6.1677639
2010	76	15.56	-0.56	11.13	0	786.6147442	476.9151246	42368	31.57159722	5.9419861
2010	77	17.78	0	12.89	0	884.5385146	492.73607	42534	32.13291667	5.9033681
2010	78	18.89	1.67	14.15	0	912.8883794	470.4246036	42701	31.55027778	6.5140278
2010	79	20	6.11	16.18	0	1037.163672	467.6267992	42867	31.45763889	7.4028889
2010	80	21.11	6.67	17.14	0	1167.51575	434.3761299	43033	31.35708333	8.6496528
2010	81	22.78	7.78	18.65	0.3143	561.2853258	416.7556944	43200	31.30027778	9.8136111
2010	82	18.33	7.78	15.43	0.246025	335.6198265	124.479454	43366	31.26215278	8.7986806
2010	83	8.33	2.78	6.81	0.000108333	570.5693522	48.67755496	43533	31.13402778	7.0599375
2010	84	15.56	2.78	12.04	0.200816667	517.5675446	503.9315774	43699	30.97229167	7.0187153
2010	85	18.33	-1.11	12.99	1.101366667	733.2761299	231.4165508	43865	31.59486111	6.3708264
2010	86	5	-5.56	2.1	0	443.5347271	467.6842978	44032	31.98208333	4.3357014
2010	87	8.89	-5.56	4.92	2.144625	172.9833566	470.2192181	44198	33.98319444	4.6135972
2010	88	7.22	2.78	6	0.182625	186.4774684	150.5477538	44363	34.73513889	6.0677917
2010	89	14.44	1.67	10.93	0.001841667	690.6611826	225.4681668	44529	35.29819444	6.2218333
2010	90	10	1.67	7.71	0.000325	707.0691914	266.377738	44695	35.56972222	6.9449236
2010	91	20	5	15.88	0	1108.768058	511.437004	44860	36.01618056	8.1112361
2010	92	26.67	6.67	21.17	0	1343.450028	507.3818101	45025	35.86847222	9.6970139
2010	93	28.33	10	23.29	0	1371.97667	462.4367559	45190	35.92868056	10.841389
2010	94	25.56	12.22	21.89	0	1784.308152	435.8771001	45354	35.56388889	10.995069
2010	95	21.11	7.22	17.29	0.001283333	1113.620212	465.9983303	45518	35.12618056	10.371389
2010	96	26.67	8.33	21.63	0.1036	1268.346143	406.7829076	45681	35.42166667	12.518472
2010	97	30	15.56	26.03	0	2277.840818	446.655186	45845	35.61215278	13.139375
2010	98	29.44	12.22	24.71	0.188058333	1355.85076	379.7380833	46007	35.31243056	12.82875
2010	99	28.89	4.44	22.17	0.03315	1122.008326	372.5798913	46169	33.27756944	10.406042
2010	100	7.22	3.89	6.31	0.008375	562.5312808	179.55233	46331	32.33125	8.5081875
2010	101	16.67	5.56	13.61	0	923.1641868	548.0731954	46492	32.55944444	9.2807639
2010	102	21.11	2.78	16.07	0	1318.838169	437.8569009	46653	34.54430556	9.7056944
2010	103	18.89	4.44	14.92	0.001133333	845.7859205	518.1982569	46813	34.67472222	9.2846377
2010	104	13.33	0	9.67	0	506.9135009	221.6722941	46972	34.73069444	8.3819653
2010	105	18.33	2.78	14.06	0	837.0168582	526.7408075	47131	34.62625	9.5124306
2010	106	25.56	7.78	20.67	0.412966667	874.0810633	461.4455159	47289	34.67888889	11.581944
2010	107	25.56	6.11	20.21	0.19925	825.0047669	318.0201281	47446	34.70381944	10.050833
2010	108	7.22	1.67	5.69	0.023616667	312.1296568	170.5551657	47602	34.67340278	7.6995833
2010	109	9.44	1.67	7.31	0	517.9129054	200.2423678	47758	34.68270833	8.1718264
2010	110	17.22	2.22	13.1	0	745.8473127	558.1331817	47912	33.95993056	8.9825694
2010	111	18.33	5	14.67	0.06255	608.2405161	482.3339367	48066	32.42506944	9.483125
2010	112	20	4.44	15.72	0.056466667	751.3825465	396.1591281	48219	32.00972222	9.6300694
2010	113	20	3.33	15.42	0	1116.214058	385.3875336	48370	34.46354167	9.8985417
2010	114	19.44	3.89	15.17	0.070741667	757.695633	564.1263783	48521	34.85798611	9.33875
2010	115	16.67	6.11	13.76	1.24475	125.4044897	259.9680097	48671	34.89729167	9.3066667
2010	116	11.67	7.78	10.6	1.029241667	100.9510084	107.3452959	48819	34.27591241	9.5122222
2010	117	12.22	5.56	10.39	0.198733333	599.0647484	107.8803864	48966	33.51805556	9.1624306
2010	118	11.11	1.67	8.51	0	629.9726654	455.3688101	49112	33.19065972	7.9740972
2010	119	12.78	2.78	10.03	0	801.9290074	399.0018881	49257	33.00319444	8.8546736
2010	120	19.44	6.67	15.93	0	905.2578058	546.7403494	49401	33.175625	10.952708
2010	121	27.78	10	22.89	0	1358.744456	521.5866621	49543	33.18378472	13.114097
2010	122	30.56	15.56	26.43	0.23245	594.7040993	450.8251716	49683	33.11083333	14.897569
2010	123	23.89	17.78	22.21	1.59415	641.6816102	146.5390482	49823	33.23326389	15.137292
2010	124	25	12.78	21.64	0.37015	871.2859522	270.4929544	49960	33.10802083	13.80125
2010	125	22.22	8.89	18.56	0	858.2302341	442.5669115	50096	32.27217361	12.956181
2010	126	26.67	11.11	22.39	0.27015	1221.65997	569.4504788	50231	30.45381944	13.537708
2010	127	21.11	6.11	16.99	0	743.1969638	560.3188452	50363	30.41805556	12.312361
2010	128	20.56	8.33	17.19	0.721991667	641.877035	446.5041489	50495	30.18270833	12.500347
2010	129	16.11	2.78	12.44	0.037625	632.339722	343.873558	50624	29.810625	9.4803472
2010	130	8.33	2.22	6.65	0	538.1930523	221.9358042	50751	31.54645833	8.6296528
2010	131	15	1.67	11.33	1.692641667	284.1894484	601.7866816	50877	31.92666667	7.7913889
2010	132	9.44	3.33	7.76	1.605108333	95.03821326	84.61235294	51000	31.46298611	8.6686111
2010	133	16.11	6.67	13.51	0.000833333	325.1761622	124.2531591	51122	31.24208333	9.485
2010	134	14.44	7.78	12.61	0.162083333	322.4562471	204.1767335	51241	31.493125	10.561736
2010	135	27.22	11.11	22.79	0.132266667	1337.088583	332.1215001	51358	31.41138889	11.597986
2010	136	21.11	10.56	18.21	0.002566667	900.2163436	517.0892312	51473	31.12541667	11.469028
2010	137	19.44	8.89	16.54	0.335833333	439.1544302	545.8230915	51586	30.91868056	10.975486
2010	138	15.56	8.33	13.57	0.513241667	179.6434306	138.9265141	51697	30.74868056	10.162569
2010	139	11.67	8.33	10.75	0.000191667	250.5843739	92.26130682	51805	30.41340278	10.281389
2010	140	17.78	10	15.64	0	659.6935837	253.1652475	51910	30.03020833	12.094375
2010	141	27.22	13.33	23.4	0	1003.374627	550.5801323	52014	29.65305556	13.52
2010	142	27.78	15.56	24.42	0.303733333	781.8861175	410.6865142	52114	29.17284722	14.284375
2010	143	22.22	15	20.24	1.86885	266.716222	299.7104497	52212	28.71166667	14.401458
2010	144	22.22	13.89	19.93	0.00325	399.917488	255.3545538	52308	28.39131944	14.507639
2010	145	23.33	15	21.04	0.00005	644.1077855	286.6230725	52400	28.06208333	15.383819
2010	146	26.67	16.11	23.76	0	895.8815694	439.6306725	52490	27.61097222	16.380972
2010	147	30	17.78	26.64	3.33E-05	1313.359499	547.7983339	52577	27.12701389	17.899931
2010	148	30.56	18.89	27.35	0.036416667	664.1662989	479.0819376	52662	27.29090278	17.892292
2010	149	26.11	17.78	23.82	0.000433333	684.3608582	289.6928502	52743	27.12131944	17.579097
2010	150	26.11	13.33	22.6	0	956.8020012	354.3647792	52821	26.78104167	17.283194
2010	151	30	16.11	26.18	0.123666667	789.0704057	569.5046317	52896	26.19541667	17.676875
2010	152	30.56	17.78	27.04	0.306483333	503.5565497	397.5129038	52969	25.63229167	17.923681
2010	153	26.11	14.44	22.9	0	795.9966503	256.7324937	53038	25.19486111	17.397708
2010	154	28.33	16.11	24.97	0.000383333	918.3023758	527.5724912	53103	24.85631944	18.233333
2010	155	27.78	18.89	25.33	0.001325	670.8221589	376.3463868	53166	24.54263889	18.313194
2010	156	28.33	18.89	25.74	0.226383333	534.0558894	354.1336778	53225	24.25319444	18.628264
2010	157	27.78	18.89	25.33	0.106141667	791.4485343	293.8819467	53281	23.948125	18.156389
2010	158	25.56	12.78	22.04	0.0003	1096.404058	343.5280309	53334	23.61645833	16.205694
2010	159	21.11	10	18.06	0	920.4562131	410.4082198	53383	23.24291667	14.709722
2010	160	22.22	11.67	19.32	3.927258333	255.7260075	585.2579124	53429	23.476875	13.932014
2010	161	17.22	12.22	15.85	0.003291667	513.1863292	72.04826916	53471	25.77118056	15.184792
2010	162	25.56	12.78	22.04	0	685.5874432	487.6168193	53510	24.94486111	15.667014
2010	163	25.56	13.89	22.35	0.019616667	570.430018	467.1209801	53546	24.95333333	17.312014
2010	164	31.11	19.44	27.9	0.528716667	730.595471	471.5924371	53577	25.29805556	18.843889
2010	165	28.33	16.67	25.12	0.008216667	625.1153143	296.6134574	53606	27.92881944	18.295347
2010	166	25	18.33	23.17	0.003133333	529.8318543	218.7056312	53630	28.24888889	17.830347
2010	167	23.33	17.78	21.81	0.119383333	485.7824635	255.665188	53651	27.90340278	18.136528
2010	168	28.33	17.22	25.28	0	1173.624179	428.3863683	53669	27.92611111	17.863056
2010	169	23.33	11.67	20.12	0	676.6384707	434.4317648	53682	27.04284722	16.565069
2010	170	27.22	13.89	23.56	0	778.92801	574.6877247	53693	26.16618056	17.534722
2010	171	31.11	17.78	27.44	0.041833333	1104.615981	503.0047114	53699	25.82826389	18.948333
2010	172	28.89	16.11	25.38	0	1056.244733	418.5089568	53702	25.66763889	18.668333
2010	173	29.44	18.89	26.54	0.345633333	654.9866769	523.446677	53701	26.28861111	18.677847
2010	174	27.78	20.56	25.79	0.011108333	875.979023	289.275514	53696	25.38840278	19.627014
2010	175	31.67	20.56	28.61	0.035641667	1198.900125	496.9816905	53688	24.62958333	19.913333
2010	176	28.33	16.67	25.12	0	1026.932597	378.4889336	53676	23.99097222	19.170903
2010	177	27.22	17.22	24.47	0	950.2680028	495.7837908	53661	23.31798611	18.683681
2010	178	30	19.44	27.1	1.03355	899.8804639	446.1037453	53641	22.75173611	19.795764
2010	179	31.67	21.11	28.76	0.1209	968.1793801	452.7681046	53619	22.37958333	20.548611
2010	180	26.67	19.44	24.68	0.017883333	1134.858296	228.4517279	53592	22.12152778	19.599583
2010	181	25	8.89	20.57	0	1057.861714	488.4842612	53562	21.76972222	16.380556
2010	182	22.22	10	18.86	0	983.406447	539.4237142	53529	21.45888889	15.299306
2010	183	22.22	10	18.86	0	883.5957742	474.1217962	53491	21.24805556	15.068403
2010	184	25	12.22	21.49	0	1060.72511	574.5579877	53451	21.07041667	15.910764
2010	185	30	13.33	25.42	0	1367.643937	574.7227143	53407	20.85340278	17.175556
2010	186	32.78	18.33	28.81	0	1530.310727	565.443018	53359	20.69833333	18.904583
2010	187	34.44	20.56	30.62	0	1773.996979	475.057271	53308	20.69972222	19.985625
2010	188	33.89	21.11	30.38	0	1710.002764	492.9856537	53254	20.38131944	20.8525
2010	189	33.89	21.11	30.38	0	1870.65705	496.0998383	53196	20.11972222	20.854306
2010	190	34.44	22.22	31.08	2.081583333	1197.390857	476.904338	53135	19.91118056	21.169236
2010	191	32.78	18.33	28.81	1.728766667	1312.467067	392.8769196	53071	19.79472222	20.384444
2010	192	27.78	14.44	24.11	0	1133.416809	525.5413365	53004	19.72743056	18.829236
2010	193	30	17.22	26.49	0.73635	682.3568476	568.3926095	52933	19.65875	18.543611
2010	194	27.78	19.44	25.49	0.059183333	456.26382	344.053689	52860	20.41597222	19.393264
2010	195	25.56	19.44	23.88	1.139066667	524.0691574	206.5965368	52783	20.42826389	20.132847
2010	196	28.33	18.33	25.58	0	848.8172994	312.7365805	52703	20.33	20.402569
2010	197	30.56	20	27.65	0.48655	485.2050045	501.7411631	52620	20.30902778	20.559861
2010	198	29.44	18.89	26.54	0.000166667	831.2836514	324.7284858	52535	20.43666667	20.624306
2010	199	30	18.89	26.94	0.0028	1335.872475	494.1107234	52446	20.39756944	21.413264
2010	200	31.67	22.22	29.07	0.00055	1172.862153	516.2557922	52355	20.15631944	21.212986
2010	201	30.56	18.33	27.19	0.4471	546.8714812	459.8963854	52261	19.93722222	20.407569
2010	202	29.44	18.89	26.54	0.416091667	750.04759	326.6476689	52164	19.83520833	20.902847
2010	203	31.11	18.89	27.75	0.344708333	979.5500502	417.1403822	52065	19.67902778	20.730208
2010	204	29.44	20	26.85	0.001166667	1130.484838	516.7896773	51963	23.95277778	21.445417
2010	205	33.89	22.22	30.68	0.002166667	1667.306151	440.4106213	51858	23.49590278	22.895139
2010	206	32.78	22.22	29.88	0.206216667	1058.341802	478.5279318	51751	23.03479167	22.1725
2010	207	27.22	17.22	24.47	0	1104.311093	280.8925487	51642	22.80263889	19.910139
2010	208	27.78	16.11	24.57	0	989.1303315	564.1301378	51530	22.56298611	19.250764
2010	209	29.44	18.33	26.39	0	1062.703218	530.1708773	51417	22.24833333	20.082153
2010	210	30.56	20	27.65	0.312433333	1242.692256	499.9139181	51300	21.96861111	20.985208
2010	211	28.89	14.44	24.92	0	1191.594979	458.6983705	51182	21.77472222	18.886736
2010	212	25.56	13.33	22.19	0	1046.683227	492.6402217	51062	21.63729167	18.073819
2010	213	26.67	15.56	23.61	0.0018	1014.72537	468.5463397	50939	21.44243056	19.169583
2010	214	27.78	18.33	25.18	0	799.9971262	406.3037292	50815	21.21465278	18.922361
2010	215	25.56	19.44	23.88	0.12175	482.7329491	319.319839	50688	20.97506944	19.518056
2010	216	28.33	21.67	26.5	0.1883	643.2302471	250.2314478	50560	20.70506944	20.778264
2010	217	32.22	20.56	29.01	0.015533333	1043.26288	360.6039064	50430	20.39354167	20.854167
2010	218	28.33	18.33	25.58	0.19875	980.2004728	368.7530916	50298	19.99506944	19.973125
2010	219	25.56	15	22.65	0	950.096899	392.7425644	50164	19.70055556	18.480417
2010	220	26.67	13.89	23.15	0	1108.238357	462.3589718	50029	19.59916667	18.126528
2010	221	29.44	15	25.47	0	1455.063619	506.9994989	49892	19.538125	18.923333
2010	222	32.22	17.22	28.1	0	1413.836914	509.5128834	49754	19.28743056	20.263889
2010	223	32.22	20	28.86	0	1543.52506	388.7245536	49614	19.095	20.952986
2010	224	31.67	20	28.46	1.727325	407.2173777	505.668277	49472	18.896875	20.511181
2010	225	23.33	16.67	21.5	0.066308333	456.9723593	142.4630043	49330	18.81951389	19.150347
2010	226	21.67	17.22	20.44	0	729.8387913	171.2793884	49186	18.81868056	18.694167
2010	227	24.44	19.44	23.07	0.923683333	306.2990266	208.9867047	49040	18.77881944	19.129097
2010	228	27.22	19.44	25.08	0.000133333	894.7940435	221.0361394	48894	18.70583333	20.675
2010	229	30	16.67	26.33	0	1297.342299	449.2098429	48746	18.51826389	19.180417
2010	230	27.78	17.78	25.03	0	866.6201794	506.3022615	48597	18.499375	18.691111
2010	231	25.56	14.44	22.5	0	779.0633917	270.5033852	48446	18.70493056	18.430972
2010	232	30	16.11	26.18	0	1085.611031	468.7396625	48295	18.86701389	18.997639
2010	233	29.44	16.67	25.93	0.0001	1022.523487	461.6193631	48143	18.99097222	19.164028
2010	234	28.33	17.22	25.28	5.16885	519.1962818	306.8267764	47990	18.88298611	20.250417
2010	235	26.11	17.22	23.67	0.204908333	405.6654593	253.2890919	47836	18.95409722	18.833889
2010	236	20.56	15	19.03	0.027841667	371.05711	155.1791699	47681	19.05888889	17.916597
2010	237	20.56	15	19.03	0.044958333	441.8330614	172.3907628	47525	19.09965278	18.106806
2010	238	25	16.67	22.71	0.000158333	877.2703059	279.0671128	47368	19.09111111	17.925069
2010	239	24.44	10.56	20.62	0	748.6583543	455.2917814	47210	18.86638889	16.195417
2010	240	25	10.56	21.03	0	779.5339742	547.6961022	47052	18.86208333	15.836528
2010	241	27.22	12.22	23.1	0	791.4642562	536.0757896	46893	19.67729167	16.830903
2010	242	30.56	14.44	26.13	0	1024.022671	518.6078444	46734	19.75291667	18.176042
2010	243	30.56	16.67	26.74	0	1047.837738	511.5565456	46573	24.73972222	18.814514
2010	244	32.22	18.33	28.4	0	1262.067289	488.2495637	46413	35.4825	19.220764
2010	245	32.22	18.33	28.4	0	1320.47912	492.8001341	46251	35.49048611	19.441181
2010	246	32.78	18.33	28.81	0.00065	1314.304528	503.9149906	46089	34.69291667	19.103472
2010	247	31.67	15	27.08	0	1431.1609	400.319028	45927	32.138125	17.381042
2010	248	19.44	10.56	17	0	721.8798257	265.2846998	45764	30.789375	14.728472
2010	249	20	7.78	16.64	0	679.7199161	415.3873904	45600	30.378125	14.079722
2010	250	25.56	8.89	20.97	0	1107.261922	457.7717499	45437	30.23395833	16.121667
2010	251	31.67	15	27.08	0	1890.012094	495.0344584	45272	30.01666667	17.469653
2010	252	23.89	13.33	20.99	0.000183333	1038.530398	503.5719828	45108	29.84402778	15.803542
2010	253	19.44	12.78	17.61	6.67E-05	777.2339625	231.0999266	44943	29.69930556	15.440556
2010	254	20	8.33	16.79	0	748.6275351	290.650163	44778	29.64090278	14.458056
2010	255	22.78	10	19.26	0.660916667	216.9822357	447.5443705	44613	29.92090278	15.323611
2010	256	20.56	9.44	17.5	0.0016	619.4254481	139.7689383	44447	29.80506944	15.124514
2010	257	25	11.11	21.18	0	1061.000073	452.1078792	44281	29.60270833	14.529444
2010	258	22.78	11.11	19.57	0	990.0210669	500.4573501	44115	29.66861111	14.408472
2010	259	23.89	10.56	20.22	2.125225	372.4080067	503.9175863	43949	29.62027778	13.555833
2010	260	17.78	11.67	16.1	0.484125	375.0209321	84.36151018	43783	29.51097222	14.946806
2010	261	17.78	8.89	15.33	0.005	375.7720653	239.2505674	43617	29.41055556	14.161944
2010	262	22.78	8.89	18.96	0.0195	480.5608047	453.506214	43450	29.25347222	14.957847
2010	263	26.11	11.67	22.14	3.33E-05	1081.792827	332.6857037	43284	29.06979167	14.888819
2010	264	20.56	7.22	16.89	0	643.9765751	493.7118306	43117	29.01791667	13.128194
2010	265	25	7.22	20.11	0.01325	635.0261859	480.9962981	42951	28.95	13.898033
2010	266	30.56	15	26.28	0.00045	782.4224953	375.1295812	42784	28.86597222	14
2010	267	28.89	16.11	25.38	0	1217.707535	349.8233376	42618	28.93263889	15
2010	268	31.11	17.22	27.29	0	1751.510632	405.625106	42452	28.95083333	15.531463
2010	269	25.56	10	21.28	0.000125	831.7510312	472.0965095	42286	29.13076389	16.529722
2010	270	18.33	10	16.04	1.195225	164.7892971	268.5343305	42120	30.84020833	17.658542
2010	271	20	13.33	18.17	1.661683333	426.1130836	99.07493922	41954	30.11854167	18.386181
2010	272	22.78	12.22	19.88	0	487.310112	298.0669331	41788	29.84104167	15.966944
2010	273	18.33	12.22	16.65	6.583841667	126.6738748	248.5008769	41623	29.64083333	15.212222
2010	274	17.78	12.22	16.25	0.844658333	547.663525	17.46538666	41458	29.551875	16.741458
2010	275	18.33	5.56	14.82	0	426.5965178	271.3559683	41293	29.42083333	15.382083
2010	276	16.67	5.56	13.61	0	575.8699083	458.080284	41129	29.27284722	15.253681
2010	277	16.67	6.11	13.76	0.53855	278.6348763	337.7378674	40964	29.17263889	14.867917
2010	278	9.44	6.67	8.68	0.212733333	133.5831472	101.3366339	40801	30.55104167	12.503958
2010	279	11.11	7.78	10.19	0.127425	190.0250428	71.4293378	40637	30.43777778	11.434583
2010	280	12.22	8.33	11.15	0.039575	463.5628944	85.42313584	40474	32.46513889	11.178125
2010	281	18.89	7.22	15.68	0	655.8766755	338.7311719	40312	32.13930556	10.185278
2010	282	22.22	7.78	18.25	0	779.6958025	438.6341968	40150	31.66506944	10.351042
2010	283	22.78	6.67	18.35	0	692.8307783	417.9222036	39989	30.67916667	11.047292
2010	284	25	6.67	19.96	0.066072917	741.3670975	369.4599528	39828	30.06944444	11.677014
2010	285	24.44	12.78	21.24	0.1991125	521.5284483	277.3587617	39667	29.85082353	11.931181
2010	286	20.56	3.33	15.82	0.09274375	566.6405233	344.9811684	39508	30.38702108	12.050694
2010	287	15.56	3.89	12.35	0.14305	231.1095259	441.6509441	39349	30.17257616	13.595556
2010	288	12.22	6.11	10.54	0.1139375	468.0303829	77.99188589	39191	30.08982946	13.72619
2010	289	13.89	6.11	11.75	0.114870833	761.6832293	307.2938539	39033	30.07683132	13.260426
2010	290	16.11	6.67	13.51	0.122252083	685.4528063	422.1212059	38876	32.30858878	13.043878
2010	291	19.44	5	15.47	0.162904167	555.0569026	392.1113378	38720	32.98684686	12.897467
2010	292	11.67	5.56	9.99	0.1466625	282.4429187	124.3855309	38565	32.11042834	12.723877
2010	293	13.33	2.78	10.43	0.1443875	414.7898982	271.7385645	38411	31.76296087	12.538891
2010	294	15.56	3.33	12.19	0.1517625	699.3025205	347.0574259	38258	31.55065106	12.19785
2010	295	13.33	3.33	10.58	0.159147917	490.3280585	282.2905054	38106	33.76066699	11.971658
2010	296	10.56	3.33	8.57	0.166525	557.1833776	197.7326571	37955	34.00869648	11.692863
2010	297	21.67	8.89	18.15	0.1739	1012.377238	300.9086076	37804	34.10771477	11.535054
2010	298	22.78	10	19.26	0.189858333	789.3058313	292.8822202	37655	34.18813147	11.82437
2010	299	20.56	10.56	17.81	0.18865625	358.6443465	159.6884315	37507	34.6166862	12.20574
2010	300	20.56	11.11	17.96	0.5158375	632.6654051	209.8228366	37361	35.41788774	12.630069
2010	301	21.11	12.22	18.67	0.212004167	1297.96509	332.1233642	37215	39.07589145	13.008809
2010	302	17.78	6.11	14.57	0.217233333	689.7388036	358.5730895	37071	39.42732809	12.890453
2010	303	9.44	1.11	7.15	0.2224625	444.2267866	155.9733536	36928	35.70270416	12.51259
2010	304	14.44	1.67	10.93	0.22984375	808.029403	259.3493354	36787	36.10186581	12.007603
2010	305	10.56	0	7.65	0.232933333	472.1719969	293.7119819	36647	37.60492548	11.707767
2010	306	8.89	-2.78	5.68	0.240304167	319.3909071	371.8125668	36509	37.38255847	11.281684
2010	307	8.89	-3.33	5.53	0.247679167	312.2789986	367.1941878	36372	37.20729018	10.691656
2010	308	11.67	-1.67	8	0.604264583	83.69635213	355.4632834	36237	37.05692316	10.218231
2010	309	7.22	4.44	6.46	0.2888375	175.9257212	54.8098496	36103	37.0122666	9.9999299
2010	310	7.78	0	5.64	0.269820833	172.1142941	100.7224709	35971	36.91440593	9.6071624
2010	311	6.67	-1.67	4.38	0.277195833	210.7492259	146.9910438	35841	36.81776633	9.574724
2010	312	7.22	-1.67	4.78	0.284570833	361.6596132	185.7458068	35713	36.74624606	9.3239841
2010	313	12.78	1.67	9.72	0.291952083	368.5225518	335.5141348	35586	36.64563796	9.3020662
2010	314	13.33	2.78	10.43	0.2993375	419.5066571	310.0616716	35462	36.53238299	9.2520936
2010	315	15.56	-0.56	11.13	0.25615	492.2783269	330.0317213	35339	36.46190935	9.2494635
2010	316	14.44	-1.67	10.01	0	481.0964535	337.9227122	35219	36.66286388	9.070614
2010	317	15.56	-2.78	10.51	0	559.4893169	340.6536752	35100	37.16442163	8.7690247
2010	318	16.11	-2.22	11.07	0	579.0470585	335.348102	34984	37.02709397	8.4499011
2010	319	16.11	1.11	11.99	0	372.2928587	248.0123315	34870	36.80764883	8.4025586
2010	320	11.11	5.56	9.58	0.537322917	152.0840852	203.0266118	34759	36.47316071	8.5936821
2010	321	13.33	6.11	11.35	0.203147917	320.9556925	44.64180784	34649	36.03967805	9.2108881
2010	322	10	4.44	8.47	0	232.0091213	67.80163279	34542	36.08847756	9.5756007
2010	323	7.22	0.56	5.39	0.0064375	269.3813889	64.19658517	34438	35.72825958	9.0408057
2010	324	8.33	1.67	6.5	0	277.0268488	233.4916997	34336	35.32085566	8.3148873
2010	325	9.44	0	6.85	0	207.7341228	107.2860356	34237	39.30859081	8.2000379
2010	326	10	0.56	7.4	0	298.3917824	257.8959578	34140	43.70843974	8.1895173
2010	327	16.11	7.78	13.82	0	539.9005792	237.1552899	34046	43.68257906	8.4393805
2010	328	16.67	1.11	12.39	0	692.4428835	91.38558049	33954	43.64424593	8.61823
2010	329	6.11	1.11	4.74	0.507597917	181.2210866	238.7872793	33866	43.65292431	7.9843665
2010	330	6.67	1.67	5.29	0.2343625	222.6173954	31.3071048	33780	43.59457423	8.6445314
2010	331	5.56	-1.67	3.57	0.0618	302.8723865	234.1558002	33697	43.53090374	8.6454081
2010	332	1.67	-1.11	0.9	0.027897917	235.2704458	74.68713189	33618	43.46252337	8.2535174
2010	333	5.56	-4.44	2.81	0	198.9130146	285.5329895	33541	43.41093283	7.0550506
2010	334	7.22	-4.44	4.01	0.559314583	144.0269041	271.9509367	33467	43.37532157	7.2470507
2010	335	15.56	6.11	12.96	0.634014583	217.6643005	35.0959667	33397	43.2968171	9.4572445
2010	336	8.89	-3.33	5.53	0	225.6602918	59.24984248	33329	43.26910549	9.4563677
2010	337	0	-3.89	-1.07	0	141.7869422	117.1770329	33265	43.26499528	9.0171345
2010	338	0.56	-3.33	-0.51	0	141.1717228	105.6861222	33204	30.89629946	8.5121477
2010	339	1.11	-5	-0.57	0	208.3396032	135.5414228	33146	30.79540817	7.7704485
2010	340	0	-4.44	-1.22	0	185.6257966	181.157319	33092	30.77519973	6.522009
2010	341	-1.67	-5.56	-2.74	0	148.6670345	112.8574196	33041	30.54530419	5.3068847
2010	342	-2.22	-6.67	-3.44	0	170.1421997	109.4410329	32993	30.45985976	4.0523082
2010	343	-2.22	-7.78	-3.75	0	169.1102716	141.160885	32949	30.50351391	3.2623897
2010	344	-1.11	-7.78	-2.94	0.8478	92.37163869	278.3194871	32909	30.5309817	2.6995399
2010	345	-1.11	-6.11	-2.49	0	125.3133763	68.04100754	32872	30.46358753	2.6820056
2010	346	3.33	-6.67	0.58	6.78475	53.99989583	214.0411109	32838	31.81217391	2.8538414
2010	347	6.67	-5.56	3.31	0.14025	286.7707843	43.10753475	32808	31.69965278	2.8187729
2010	348	-2.78	-10.56	-4.92	0.25175	157.1837901	185.3396376	32782	31.554375	2.4558137
2010	349	-6.11	-10	-7.18	0.0091	133.9123063	131.4019964	32759	31.45881944	1.7605802
2010	350	-4.44	-10	-5.97	0.00675	116.3516088	142.4384239	32740	31.32819444	1.1047988
2010	351	-3.89	-10	-5.57	0	127.3264968	133.26696	32724	30.95166667	0.73745599
2010	352	-1.11	-6.67	-2.64	0	177.9268931	146.6265591	32712	30.80055556	0.94962056
2010	353	-0.56	-10.56	-3.31	0	125.3856509	173.7958048	32704	31.15520833	0.68046964
2010	354	-1.67	-11.11	-4.26	0.0354	122.916714	199.5150922	32699	31.25361111	0.63225042
2010	355	-1.67	-4.44	-2.43	0.0081	206.3356866	68.5882317	32698	31.20923611	0.81811359
2010	356	1.67	-5	-0.17	0	258.9447398	261.5004434	32701	31.04875	0.91718217
2010	357	2.78	-3.89	0.94	0.0417	253.2793513	154.8191213	32707	31.53465278	1.0548261
2010	358	1.11	-5	-0.57	0.0011	228.4464871	146.2933032	32717	31.37076389	1.1889632
2010	359	0.56	-5	-0.97	0.0005	180.6076639	237.0277718	32731	31.16180556	1.2959222
2010	360	-1.11	-6.11	-2.49	0.0301	171.8522103	95.08027726	32749	31.02618056	1.2959222
2010	361	-2.78	-8.89	-4.46	0	194.8111694	94.07567897	32770	30.94520833	1.2967989
2010	362	-2.22	-8.89	-4.06	0.0014	193.5319113	263.7063792	32794	30.28471528	1.6264431
2010	363	1.11	-6.11	-0.88	0	209.7445961	213.9627993	32822	30.77993403	1.9359228
2010	364	4.44	-7.22	1.24	0.0145	149.7636122	237.5259634	32854	30.5325	1.6913198
2010	365	3.33	-7.22	0.43	0	147.0148056	124.7939433	32889	29.72152778	1.5948814
