"Shalehills,"	2012	:	input	for	MTCLIM	v4.3				
MTCLIM	v4.3	OUTPUT	FILE	:	Mon	Jan	16	16:32:50	2012	
	yday	Tmax	Tmin	Tday	prcp	VPD	srad	daylen	SoilW	SoilT
		(degC)	(degC)	(degC)	(cm)	(Pa)	(Wm-2)	(s)	(%)	(deg C)
2008	1	4.44	-2.78	2.46	0.945	162.1754386	74.26532586	32928	22.43286237	1.98562999
2008	2	3.89	-5.56	1.29	0.02	187.1368421	167.8152723	32971	22.45182191	1.607185458
2008	3	-3.33	-11.11	-5.47	0	101.5438596	106.5994776	33017	22.44491683	1.3010022
2008	4	-4.44	-10.56	-6.13	0	79.34736842	146.1910107	33066	22.1757048	0.892287663
2008	5	3.33	-9.44	-0.18	0	213.3263158	128.3619293	33119	22.06966314	0.270235081
2008	6	5.56	-0.56	3.88	0.09	153.9578947	150.9372349	33175	22.01055176	0.271250161
2008	7	7.78	5	7.01	0.035	91.50175439	140.2483303	33234	22.61795184	1.212635815
2008	8	18.89	6.11	15.38	0.025	564.2736842	150.4394411	33296	22.75374789	3.084797986
2008	9	19.44	8.33	16.39	0.06	537.6280702	105.3854191	33362	22.49140902	5.012588925
2008	10	11.67	-0.56	8.31	0	356.7017544	143.2137944	33431	22.31488848	4.952372752
2008	11	7.78	-0.56	5.49	2.36	221.4175439	71.27947274	33503	23.39872183	4.276718303
2008	12	10.56	2.78	8.42	0	250.8	154.0184998	33579	22.9789139	3.770016462
2008	13	6.11	-2.22	3.82	0	199.2421053	95.57350983	33657	22.76549167	3.74169895
2008	14	3.89	-2.22	2.21	0.12	138.4210526	78.85942194	33738	22.35775968	3.131347552
2008	15	2.78	-2.78	1.25	0	119.7754386	115.6315849	33822	22.14398849	2.79769908
2008	16	-1.11	-2.78	-1.57	0	32.70175439	124.7608792	33909	21.95869504	2.654006957
2008	17	0	-3.33	-0.92	0.57	65.66315789	39.7821178	33999	21.71235602	2.149081294
2008	18	2.22	-2.22	1	0.33	96.6877193	192.1065495	34092	21.6233049	2.08925867
2008	19	2.78	-6.67	0.18	0	173.9508772	74.92460842	34187	21.66180194	1.846934865
2008	20	-1.11	-12.22	-4.17	0	146.877193	146.3660797	34285	21.68214923	1.792562466
2008	21	-10	-13.89	-11.07	0	37.60701754	219.9418733	34386	22.72986699	1.344159896
2008	22	-5	-13.89	-7.44	0	98.44210526	56.08060144	34489	22.35005473	0.884443809
2008	23	2.78	-6.11	0.33	0	167.4526316	228.0515236	34595	22.60412948	0.295707785
2008	24	-2.78	-7.78	-4.15	0	76.32280702	127.3519069	34703	22.7539344	0.21810746
2008	25	-2.22	-10	-4.36	0	109.6210526	234.037384	34814	22.03016899	0.171631818
2008	26	-3.89	-10	-5.57	0.04	82.45614035	104.9307725	34926	21.71146784	0.195194815
2008	27	-2.78	-8.33	-4.31	0	82.82807018	124.9231997	35042	21.43348163	0.486059027
2008	28	-0.56	-5	-1.78	0	80.60350877	154.4767583	35159	21.33210971	0.073528472
2008	29	2.22	-2.22	1	0.4	96.6877193	43.53701965	35278	21.66916172	0.1692792
2008	30	5.56	-1.11	3.72	1.5	164.3087719	244.5521479	35400	21.82319847	0.202406437
2008	31	0.56	-8.89	-2.04	0	149.9578947	226.2413369	35523	22.61056212	0.265287212
2008	32	1.11	-7.78	-1.33	2.715	149.9017544	34.2419458	35649	22.72909372	0.369245269
2008	33	2.78	-2.22	1.4	0.005	110.245614	54.4632701	35776	23.39756124	0.386209188
2008	34	1.11	-5.56	-0.72	0	123.1789474	193.8204599	35905	23.21961591	0.652532606
2008	35	6.11	-5	3.06	0.02	238.077193	28.68020167	36036	23.00507107	0.609426353
2008	36	5	0.56	3.78	1.02	115.4596491	60.41794179	36169	22.5631461	0.578380984
2008	37	13.33	3.33	10.58	0.4	351.2280702	58.99176462	36303	22.29120772	0.110542851
2008	38	16.67	1.67	12.54	1.01	536.0421053	34.06134861	36440	22.78592202	0.488986987
2008	39	3.33	-1.11	2.11	0.06	103.8526316	93.46704024	36577	23.12407794	1.73463888
2008	40	2.22	-2.22	1	0.78	96.6877193	104.8826995	36716	23.2456811	1.185453629
2008	41	4.44	-1.67	2.76	0.21	143.4385965	138.0808326	36857	23.4455725	0.704218438
2008	42	-1.11	-16.67	-5.39	0	170.5473684	276.0955972	36999	23.34650658	0.45277809
2008	43	-8.89	-16.67	-11.03	1.91	68.41403509	51.16775987	37143	23.1687145	0.308974305
2008	44	-3.33	-11.67	-5.63	0.57	106.2385965	67.15629299	37287	22.83362265	0.085021001
2008	45	0.56	-7.78	-1.74	0	138.5403509	298.1589112	37433	22.79570318	-0.142639665
2008	46	2.22	-7.78	-0.53	0	173.5438596	36.74087027	37581	23.35262095	-0.131321892
2008	47	2.78	-11.11	-1.04	0	213.5157895	276.994338	37729	24.49588406	-0.060985867
2008	48	2.22	-10.56	-1.29	0.23	197.9649123	88.53517925	37879	24.22939658	0.361980076
2008	49	8.89	-0.56	6.29	0.44	257.7403509	115.3046502	38029	23.86939698	0.394781893
2008	50	8.33	-4.44	4.82	0	295.9298246	210.0505083	38181	24.61057646	0.657314366
2008	51	-1.11	-10	-3.56	0	128.9964912	216.9213191	38334	24.1182229	0.610389516
2008	52	-3.89	-12.78	-6.33	0	106.4491228	319.0437311	38487	23.65099389	0.357798417
2008	53	-2.22	-12.78	-5.13	1.05	132.2526316	64.4776124	38642	23.47171224	0.164884307
2008	54	-2.78	-5.56	-3.54	0.08	46.58245614	162.1471022	38798	23.22323909	0.305468332
2008	55	1.67	-8.89	-1.24	0	172.5333333	336.9852824	38954	22.93714966	0.376742508
2008	56	5	-8.89	1.18	0	247.7824561	263.5391349	39111	22.90303288	0.253918849
2008	57	2.78	-5	0.64	0.79	153.2701754	38.7282095	39269	23.10203226	0.3942552
2008	58	1.67	-3.33	0.29	0.01	102.5754386	180.3925773	39428	23.33935958	0.219734508
2008	59	-2.22	-11.67	-4.82	0	124.0421053	293.9970127	39587	23.3043275	0.061989478
2008	60	1.67	-12.22	-2.15	1.565	197.9789474	195.1596394	39747	23.10531594	-0.133515002
2008	61	1.67	-5.56	-0.32	0	135.3192982	214.9730927	39907	23.38590243	-0.113632266
2008	62	4.44	-5.56	1.69	0	200.9473684	283.1433365	40068	23.22005518	-0.025818963
2008	63	15.56	1.67	11.74	2.165	483.3684211	338.0633033	40230	23.34860802	0.29539159
2008	64	7.78	1.67	6.1	3.805	176.9894737	16.7101757	40392	23.19418515	0.217023958
2008	65	4.44	-2.78	2.46	0	162.1754386	76.33602293	40555	23.20022083	0.455785487
2008	66	7.78	-2.78	4.88	1.01	257.2491228	344.3062315	40718	23.17899688	1.20440219
2008	67	7.22	-1.11	4.93	2.03	213.8035088	92.41831857	40882	23.46756237	1.211442515
2008	68	3.33	-7.22	0.43	0	192.8140351	32.01108931	41046	23.48976381	1.713988617
2008	69	0	-6.67	-1.83	0	114.4140351	352.3229733	41210	23.19382173	1.472068237
2008	70	6.11	-3.89	3.36	0	223.8807018	254.1309072	41375	23.23491002	1.460636767
2008	71	6.11	1.11	4.74	0.01	136.2807018	221.106495	41540	23.13220634	1.68601767
2008	72	4.44	-3.33	2.31	0	170.8210526	126.9936983	41705	23.12884752	1.796911417
2008	73	13.33	-3.33	8.75	0.015	456.6035088	343.095825	41870	22.95540018	2.226991283
2008	74	15	3.89	11.94	0.335	414.0701754	272.2770832	42036	22.84922106	2.814563958
2008	75	10	1.11	7.56	0	265.5368421	207.6830463	42202	22.95390461	3.845345237
2008	76	5.56	-3.89	2.96	0	208.5403509	138.6255292	42368	23.15901455	4.12131104
2008	77	7.78	-3.89	4.57	0.1	272.2807018	390.8147985	42534	23.19109983	3.718096093
2008	78	5.56	2.22	4.64	1.52	93.68421053	45.30573392	42701	23.27047014	3.481184735
2008	79	12.78	1.67	9.72	0.21	362.0140351	65.22554605	42867	23.32944194	4.023746465
2008	80	3.89	-2.78	2.06	0	147.677193	286.8709351	43033	23.15680999	4.278271897
2008	81	6.11	-2.78	3.67	1.19	207.922807	403.1206852	43200	22.99001692	4.021189435
2008	82	5.56	-6.11	2.35	0	235.8736842	244.3096605	43366	22.87275704	3.507170728
2008	83	6.11	-5.56	2.9	0	244.554386	441.529927	43533	22.75445745	3.147618268
2008	84	5.56	-4.44	2.81	0	216	323.8735238	43699	22.76624365	2.584041985
2008	85	9.44	-3.89	5.78	0	324.4350877	416.2983641	43865	23.27712112	2.91063536
2008	86	12.22	1.67	9.32	0.125	339.4175439	280.2794342	44032	23.40732736	4.120339087
2008	87	6.67	2.22	5.44	0.615	128.1684211	50.65212134	44198	23.29730035	4.161830667
2008	88	7.22	-2.78	4.47	0	240.3929825	61.10411894	44363	23.14409215	4.691102293
2008	89	7.22	-4.44	4.01	0	262.7508772	463.8618609	44529	22.98450588	4.07767142
2008	90	10	-4.44	6.03	0	348.8912281	438.6693903	44695	22.85585292	4.031716132
2008	91	13.33	4.44	10.89	0.155	325.3473684	197.7951185	44860	22.86006466	4.7298252
2008	92	21.11	1.11	15.61	0.005	779.5157895	153.1027724	45025	22.82315461	6.243084637
2008	93	8.33	-2.78	5.28	0	274.5263158	412.1306396	45190	23.75768561	6.069643875
2008	94	9.44	-2.22	6.24	0.9	302.6736842	282.5634783	45354	24.20072526	5.313235883
2008	95	11.67	3.33	9.38	0.19	281.5789474	99.7078218	45518	23.96519863	5.493004633
2008	96	12.22	4.44	10.08	0	277.5157895	246.9677547	45681	23.71660414	6.196472683
2008	97	15	4.44	12.1	0	401.4596491	361.4339293	45845	23.52434562	6.580615733
2008	98	8.33	5.56	7.57	0	94.65263158	112.8504924	46007	23.30318807	6.5787051
2008	99	14.44	6.11	12.15	0	332.6807018	235.970277	46169	23.5740991	7.036100467
2008	100	16.11	6.11	13.36	0	414.5754386	230.6567717	46331	24.07356588	7.830930333
2008	101	20.56	6.67	16.74	0.74	649.7052632	434.3297906	46492	24.51124816	8.774187267
2008	102	20	11.67	17.71	0.19	459.0105263	129.8286569	46653	24.35706225	9.707549483
2008	103	18.33	3.89	14.36	0.225	581.7052632	414.264439	46813	23.8896313	10.40617728
2008	104	8.33	0.56	6.19	0.015	218.6315789	153.8513536	46972	23.6385555	8.9754287
2008	105	10.56	-2.22	7.04	0	340.6947368	365.0471931	47131	23.45901233	7.85522545
2008	106	15	0	10.88	0	484.5333333	514.8755836	47289	23.37304581	7.511978233
2008	107	20	2.22	15.11	0	701.6982456	504.7578777	47446	23.86494195	7.946122683
2008	108	26.11	7.22	20.92	0	1022.021053	507.95137	47602	23.56095657	8.8155773
2008	109	28.33	10.56	23.44	0	1130.484211	493.9141025	47758	23.34718074	10.29534077
2008	110	27.22	12.22	23.1	3.12	984.1192982	383.3716014	47912	23.4833494	11.3890745
2008	111	15.56	12.78	14.79	0.24	144.8140351	106.4027314	48066	23.46819109	11.5413375
2008	112	21.11	11.67	18.51	0	532.8070175	255.1232909	48219	23.68810491	11.70688788
2008	113	22.22	10	18.86	0	666.6666667	382.9297748	48370	23.72067003	12.00612865
2008	114	23.89	10.56	20.22	0	768.9403509	392.1695481	48521	23.52504112	12.0702458
2008	115	22.22	11.11	19.17	0	629.8245614	483.6528005	48671	24.48267071	12.2995505
2008	116	25	11.11	21.18	2.11	836.3719298	362.1650165	48819	24.21320739	12.23152833
2008	117	27.22	10.56	22.64	0.43	1034.203509	366.4399326	48966	24.24608009	13.41836817
2008	118	19.44	7.22	16.08	2.13	568.5824561	384.6152195	49112	24.18762308	13.50048467
2008	119	11.11	5	9.43	0	217.0666667	80.66357013	49257	24.4982409	11.37513248
2008	120	13.89	2.78	10.83	0	387.2912281	413.2809411	49401	24.43124562	10.86729995
2008	121	12.22	3.33	9.78	0	304.245614	380.1821015	49543	24.34235709	9.752937033
2008	122	15	3.89	11.94	0	414.0701754	242.7939402	49683	24.20671203	9.2384638
2008	123	23.33	9.44	19.51	0.66	761.6350877	294.6654251	49823	24.36241013	10.52405147
2008	124	19.44	10	16.85	0.82	484.7017544	271.2149674	49960	24.65154213	12.1339625
2008	125	16.67	2.78	12.85	0	516.7719298	364.1233641	50096	24.41410709	11.81545783
2008	126	20.56	5.56	16.43	0	674.7789474	512.9903274	50231	24.12170832	11.38136205
2008	127	22.78	8.33	18.81	0	752.9473684	395.0321206	50363	23.92661523	11.7097435
2008	128	26.11	12.78	22.44	0.21	870.1122807	467.5605755	50495	23.68962094	12.30688567
2008	129	21.11	6.67	17.14	0.99	684.2807018	198.3231052	50624	23.68339304	13.34712938
2008	130	12.22	7.78	11	0	179.5649123	98.61794266	50751	23.66613596	12.22579976
2008	131	18.33	6.67	15.12	0.05	518.9263158	365.0987057	50877	23.21340848	11.66244284
2008	132	16.11	1.11	11.99	2.35	518.3789474	215.953789	51000	22.80074403	10.80254022
2008	133	10	2.22	7.86	0	242.4	131.2653992	51122	22.03464572	9.519620525
2008	134	22.22	7.22	18.1	0.015	743.0105263	551.7508813	51241	21.70284333	10.27582963
2008	135	21.67	10	18.46	0.115	628.645614	278.1881191	51358	21.73207372	11.08212859
2008	136	22.78	8.89	18.96	1.31	738.0280702	400.4913793	51473	21.60811411	12.17108912
2008	137	11.11	5.56	9.58	0.02	201.5017544	62.84475603	51586	21.21717763	11.44878784
2008	138	18.89	6.67	15.53	0.61	550.5192982	207.7233901	51697	21.68857529	10.63123288
2008	139	15.56	4.44	12.5	0.05	428.0421053	229.9973746	51805	22.18335122	10.64606126
2008	140	12.78	4.44	10.49	0.98	301.1508772	329.319955	51910	21.98974167	10.07822076
2008	141	12.78	6.11	10.94	0.47	256.322807	144.453465	52014	21.89338815	9.430446804
2008	142	15	6.11	12.56	0.12	359.3473684	283.4472194	52114	21.7171656	9.436310221
2008	143	13.33	6.67	11.5	0	264.9403509	370.9689661	52212	20.77339497	10.21896287
2008	144	18.89	6.11	15.38	0	564.2736842	479.3717656	52308	20.68110857	10.17391217
2008	145	21.67	6.11	17.39	0	731.9578947	520.5602666	52400	21.02097882	10.89386005
2008	146	23.89	9.44	19.92	0	801.9157895	571.4442396	52490	20.6694181	11.36455562
2008	147	29.44	13.89	25.17	0	1131.242105	479.7532375	52577	20.02083722	12.47733855
2008	148	27.22	7.22	21.72	0	1109.866667	323.4328915	52662	20.05465056	14.140318
2008	149	19.44	6.11	15.78	0	596.3157895	574.3362279	52743	19.8036862	13.2459027
2008	150	24.44	8.33	20.01	0	871.8105263	561.2936038	52821	19.70674752	12.40674173
2008	151	26.11	12.22	22.29	0.22	889.5859649	450.1151921	52896	20.27276672	12.74551615
2008	152	27.22	17.78	24.62	0	745.4877193	350.7012618	52969	20.08468141	14.60018417
2008	153	25.56	10	21.28	0	913.1789474	478.0492425	53038	19.76327191	15.01848667
2008	154	25	13.33	21.79	0	757.5298246	536.3314297	53103	19.46188689	14.227775
2008	155	27.78	15	24.26	2.01	930.4982456	375.1048031	53166	18.38277808	14.39901567
2008	156	21.11	17.78	20.19	0.15	232.4	88.90564984	53225	18.64758274	15.3095195
2008	157	28.33	19.44	25.89	0	758.1894737	343.4542992	53281	18.41790954	16.57308333
2008	158	32.78	20.56	29.42	0	1181.515789	518.2786498	53334	18.05957077	18.206381
2008	159	33.33	23.33	30.58	0	1067.480702	508.3273325	53383	17.5825114	18.92441467
2008	160	32.22	22.78	29.62	0	969.2842105	424.1094163	53429	17.20444083	19.4773175
2008	161	33.89	21.67	30.53	1.09	1251.333333	543.5073289	53471	18.76809314	19.88906983
2008	162	32.22	15.56	27.64	0.11	1357.122807	402.5853909	53510	19.17457065	19.485167
2008	163	28.33	16.11	24.97	0	934.1684211	570.7980088	53546	18.75570961	18.56332033
2008	164	30.56	17.78	27.04	0.04	1079.873684	543.2074584	53577	18.35064698	18.24805733
2008	165	31.67	19.44	28.31	0.065	1115.017544	436.8286504	53606	18.26314781	18.53325
2008	166	25	15.56	22.4	0.005	661.0736842	177.5295838	53630	17.12025534	18.82461883
2008	167	27.22	16.67	24.32	0.68	803.0315789	543.8992441	53651	16.76559638	18.45423867
2008	168	26.67	13.89	23.15	0.82	875.8596491	351.8443347	53669	17.66555158	17.66651343
2008	169	19.44	13.33	17.76	0.14	352.6877193	298.964423	53682	18.67489779	16.25672327
2008	170	18.89	8.89	16.14	0	487.4385965	230.9124569	53693	18.24896922	15.3308354
2008	171	20	11.11	17.56	0	480.1614035	339.586951	53699	17.8349594	14.35160097
2008	172	26.11	13.33	22.6	0	849.5789474	466.7959116	53702	17.03539826	15.06330377
2008	173	28.33	15	24.67	1.01	982.3789474	514.5791375	53701	16.38916945	16.07452205
2008	174	26.67	15.56	23.61	0.03	805.2491228	540.3723841	53696	16.22145624	17.06005004
2008	175	25.56	12.78	22.04	0.1	823.9719298	473.8577483	53688	16.79614446	16.96363521
2008	176	25	13.33	21.79	0	757.5298246	427.9613301	53676	16.51346575	16.27542573
2008	177	27.22	15	23.86	0.15	879.6982456	435.2392804	53661	15.6413441	16.29200684
2008	178	28.33	18.33	25.58	1.2	822.3719298	305.2199923	53641	15.87012655	18.34277355
2008	179	26.67	19.44	24.68	0	595.7403509	279.8666625	53619	15.84608388	18.27080027
2008	180	28.89	18.89	26.14	0.04	847.0035088	346.0823705	53592	15.43183429	18.97255817
2008	181	27.22	17.22	24.47	0.14	774.9263158	307.3631916	53562	14.27014638	18.77389167
2008	182	25.56	15.56	22.81	0	708.1122807	410.0800239	53529	13.9962467	18.435032
2008	183	22.78	13.33	20.18	0	584.9122807	294.4239896	53491	13.70577061	17.59915983
2008	184	27.22	15	23.86	0.02	879.6982456	554.8876362	53451	13.39907778	17.18966667
2008	185	25.56	18.33	23.57	0.02	561.3684211	228.3197945	53407	13.64835846	17.19759633
2008	186	23.89	17.78	22.21	2.12	450.7157895	198.9283499	53359	13.50663522	17.5713325
2008	187	24.44	16.11	22.15	0	587.5438596	253.0379395	53308	13.48462162	17.748452
2008	188	27.78	17.22	24.88	0.01	827.3754386	364.301146	53254	15.33927766	18.25809733
2008	189	27.22	18.89	24.93	0	682.4421053	293.9682356	53196	16.20220706	19.04244917
2008	190	30.56	18.89	27.35	0.44	1022.140351	499.3343654	53135	16.25071218	19.66559717
2008	191	26.67	16.11	23.76	0	779.2982456	187.0780288	53071	16.40886111	19.69652967
2008	192	26.67	15	23.46	0	829.9649123	556.9574034	53004	16.02905286	19.18777867
2008	193	28.33	16.67	25.12	0	908.1964912	465.7282737	52933	15.00846046	18.553595
2008	194	31.11	19.44	27.9	0.33	1052.449123	513.0871824	52860	14.86538813	19.39912633
2008	195	27.78	17.22	24.88	0	827.3754386	348.7952986	52783	14.70861912	20.28596433
2008	196	26.67	15.56	23.61	0	805.2491228	513.0194624	52703	14.69547795	19.53574683
2008	197	28.33	16.11	24.97	0	934.1684211	547.3134254	52620	14.17098353	18.58602283
2008	198	31.11	17.22	27.29	0	1166.105263	544.052465	52535	14.42666693	18.85892847
2008	199	31.67	20	28.46	0.12	1083.508772	430.150312	52446	14.48174819	19.76299733
2008	200	32.22	21.11	29.17	0	1081.25614	402.8777484	52355	13.56566021	20.3687942
2008	201	31.67	20	28.46	0.385	1083.508772	506.0580477	52261	14.19664962	20.67772447
2008	202	32.22	18.89	28.56	0.005	1208.421053	397.802932	52164	15.06528973	20.33071987
2008	203	29.44	18.33	26.39	0.4	934.6666667	392.2293767	52065	13.71151917	20.47445883
2008	204	28.89	19.44	26.29	1.29	814.6315789	404.1890116	51963	14.9115811	20.400245
2008	205	23.33	15	21.04	1.04	552.8491228	130.1127823	51858	15.32208169	19.40701117
2008	206	25	14.44	22.1	0	711.6350877	335.4432802	51751	14.1507067	18.276037
2008	207	27.78	15.56	24.42	0	906.5894737	515.8911235	51642	14.59395109	18.20506006
2008	208	28.33	18.33	25.58	0	822.3719298	418.9411438	51530	14.43511429	18.77637125
2008	209	27.22	15.56	24.01	0	855.3824561	471.8416103	51417	13.56674398	19.465443
2008	210	28.89	17.22	25.68	0	935.6210526	473.6030624	51300	14.17446383	18.86356117
2008	211	30	17.78	26.64	0.52	1021.207018	458.6570975	51182	14.0187764	19.39652367
2008	212	29.44	18.33	26.39	0	934.6666667	317.9796093	51062	13.69232976	19.3130665
2008	213	28.89	17.78	25.83	0	907.4596491	444.9143279	50939	13.5732024	20.10674583
2008	214	28.33	18.89	25.74	0.01	791.0035088	466.011274	50815	13.46253697	19.791718
2008	215	27.78	16.11	24.57	0	881.4526316	386.7588465	50688	13.24605857	19.841906
2008	216	25.56	15	22.65	0	733.6140351	384.0673109	50560	13.02556115	19.05662733
2008	217	27.78	16.67	24.72	0.1	855.0596491	455.1276247	50430	13.02352204	18.76093617
2008	218	24.44	19.44	23.07	0.39	394.4982456	139.7113656	50298	13.33310692	19.1827862
2008	219	28.89	16.67	25.53	0.05	962.4561404	504.5259114	50164	13.21327865	19.97472977
2008	220	26.67	14.44	23.31	0.1	853.4947368	329.1621676	50029	12.67940306	18.82840133
2008	221	23.89	12.22	20.68	0	712.2807018	412.4937691	49892	12.971409	17.95311983
2008	222	24.44	13.89	21.54	0.02	690.2175439	484.9992678	49754	13.03277719	17.40192217
2008	223	25	14.44	22.1	0.04	711.6350877	441.8902537	49614	12.98293672	17.440086
2008	224	21.67	14.44	19.68	0	453.9789474	293.7896063	49472	13.58438197	17.01265883
2008	225	24.44	12.78	21.24	0	734.6105263	383.0886538	49330	14.05792775	17.29702883
2008	226	27.78	13.89	23.96	0.55	974.7929825	401.0021483	49186	14.3278417	17.39620883
2008	227	25.56	15.56	22.81	0	708.1122807	308.5877957	49040	14.30159717	17.70935733
2008	228	25.56	12.78	22.04	0	823.9719298	409.4267627	48894	14.08155389	17.56981567
2008	229	25.56	14.44	22.5	0	757.9157895	450.3381082	48746	13.97534869	17.17343333
2008	230	27.22	15	23.86	0	879.6982456	445.9376243	48597	13.75831424	17.34158533
2008	231	29.44	17.22	26.08	0	991.4596491	479.6370212	48446	12.97024976	17.815683
2008	232	26.11	10	21.68	0	957.4807018	345.2582764	48295	12.51460892	18.09006397
2008	233	25.56	11.11	21.58	0	880.4421053	513.2936676	48143	12.40697662	17.01953122
2008	234	29.44	12.78	24.86	0	1168.575439	492.2851759	47990	12.25788883	16.91055603
2008	235	30	16.11	26.18	0	1099.087719	486.028885	47836	15.002515	18.07648504
2008	236	27.78	17.78	25.03	0	798.3508772	445.1357897	47681	15.43893596	18.1742005
2008	237	31.11	18.89	27.75	0.13	1082.968421	427.0491621	47525	15.15793269	18.49916883
2008	238	27.78	12.78	23.65	0	1014.603509	477.5237802	47368	16.5070038	18.91014473
2008	239	26.11	13.33	22.6	0.003895833	849.5789474	472.8899718	47210	18.04322225	17.56332097
2008	240	26.67	13.89	23.15	0.634125	875.8596491	391.6587194	47052	18.112247	17.061494
2008	241	17.78	15.56	17.17	0.228345833	133.9719298	76.48155967	46893	17.97716697	16.63892083
2008	242	21.11	16.67	19.89	0	298.2175439	136.7316001	46734	17.69444287	17.00096433
2008	243	27.22	12.22	23.1	0	984.1192982	272.0064026	46573	17.37070562	17.98709917
2008	244	27.22	13.33	23.4	0	945.6491228	480.5604059	46413	17.0157996	17.38625133
2008	245	26.67	12.78	22.85	0	917.2561404	485.0782228	46251	16.67870951	17.1286
2008	246	29.44	14.44	25.32	0	1110.919298	470.5694729	46089	16.38745031	17.089326
2008	247	30.56	15.56	26.43	0	1179.347368	453.4724015	45927	16.15251047	17.656088
2008	248	31.67	16.11	27.39	0	1274.596491	426.4797719	45764	15.95179698	18.103045
2008	249	31.11	20.56	28.21	0.05584375	986.9403509	401.2388956	45600	15.78744669	18.71906867
2008	250	22.78	12.78	20.03	0.001297917	607.6070175	90.74308797	45437	15.59210893	18.9557967
2008	251	25	13.89	21.94	0.002595833	735.1508772	369.4460335	45272	15.3506955	18.22116998
2008	252	26.67	13.89	23.15	0.62999375	875.8596491	421.3848792	45108	15.17528647	17.60944118
2008	253	20	9.44	17.1	0.0122	537.7473684	90.76460271	44943	15.7516308	17.39391928
2008	254	21.11	10.56	18.21	0.00726875	572.877193	425.9416154	44778	17.21760839	16.2708472
2008	255	20.56	13.33	18.57	0.68049375	426.7087719	263.6898264	44613	19.04936027	15.89626573
2008	256	21.11	18.33	20.35	0.05988125	197.4105263	73.35368994	44447	20.34812069	17.0476706
2008	257	24.44	19.44	23.07	0.0077875	394.4982456	173.8384785	44281	20.29649786	18.2820114
2008	258	29.44	18.89	26.54	0	904.1824561	324.7781706	44115	20.09400245	19.38527015
2008	259	22.78	11.67	19.72	0	649.7964912	256.5833122	43949	19.73648963	19.11867531
2008	260	20	9.44	17.1	0.002595833	537.7473684	193.8512764	43783	19.61662007	17.02985466
2008	261	23.33	10	19.67	0	745.277193	406.2080969	43617	19.55978253	16.09003235
2008	262	21.11	7.78	17.44	0	656.7087719	377.7754647	43450	19.37552103	16.11321985
2008	263	20.56	8.33	17.19	0	606.2245614	359.3484662	43284	19.21202096	15.26621954
2008	264	21.11	10	18.06	0.003895833	591.4526316	347.396036	43117	19.08825663	15.05129053
2008	265	24.44	10	20.47	0.002595833	827.4035088	347.231484	42951	19.02259981	15.15936392
2008	266	19.44	7.78	16.24	0	553.522807	160.481983	42784	18.9152086	15.29815823
2008	267	21.11	8.89	17.75	0	625.8315789	347.3916388	42618	18.75889935	14.7416825
2008	268	23.33	9.44	19.51	0	761.6350877	386.5043524	42452	18.60560938	14.50056167
2008	269	20.56	11.11	17.96	0.00519375	516.3438596	305.5185958	42286	18.48876708	14.60048933
2008	270	17.78	12.22	16.25	0.307825	297.5859649	70.83490064	42120	18.44954166	14.80417783
2008	271	21.11	16.67	19.89	0.688397917	298.2175439	121.649906	41954	18.86950656	16.073031
2008	272	22.22	13.89	19.93	0.0077875	519.9087719	180.6095365	41788	19.0439095	17.13759367
2008	273	20.56	10	17.65	0	555.0736842	223.3889629	41623	18.90905431	16.52811583
2008	274	18.33	10	16.04	0.233795833	417.4245614	157.5323818	41458	18.82785673	14.893194
2008	275	15.56	8.33	13.57	0	320.5614035	142.5101208	41293	18.74617588	14.16487033
2008	276	12.78	8.33	11.56	0	185.5578947	199.1104186	41129	18.60818301	13.09481017
2008	277	15	5	12.25	0.103904167	388.154386	133.8599041	40964	18.59466259	12.3758245
2008	278	14.44	6.11	12.15	0	332.6807018	188.1741131	40801	18.55343549	11.565312
2008	279	16.67	7.78	14.22	0.002595833	396.3438596	340.388306	40637	18.45369132	12.1173195
2008	280	16.67	2.22	12.69	0.0181875	526.7087719	303.3900774	40474	18.34567124	12.0149635
2008	281	16.67	2.78	12.85	0.01688125	516.7719298	351.1631033	40312	19.44525771	10.81735503
2008	282	16.67	7.22	14.07	0.035064583	412.7508772	175.5554421	40150	20.44377715	11.14282967
2008	283	21.67	8.89	18.15	0	662.4070175	314.3309896	39989	20.43327937	13.40339767
2008	284	21.11	6.11	16.99	0	696.8982456	337.3230413	39828	20.40799126	12.97412733
2008	285	21.11	5.56	16.83	0	708.7719298	331.6949444	39667	20.32594169	12.35403333
2008	286	22.78	7.78	18.65	0	767.0315789	325.7977681	39508	20.30136725	12.53982267
2008	287	25	8.89	20.57	0	899.6140351	243.0753876	39349	20.14637708	12.8040885
2008	288	26.11	8.89	21.37	0	985.8385965	270.4057186	39191	20.09127107	13.275849
2008	289	23.33	12.78	20.43	0	649.0245614	246.9959262	39033	20.06064895	14.78190567
2008	290	20	8.89	16.94	0	555.0877193	75.52750927	38876	19.97436166	14.821793
2008	291	12.22	2.78	9.62	0	316.6035088	121.496866	38720	19.89869596	12.36477083
2008	292	10.56	-1.11	7.35	0	324.5192982	225.4137799	38565	19.86797451	10.43657772
2008	293	11.67	-1.11	8.15	0.003895833	365.1789474	322.5197365	38411	19.84349222	9.469537217
2008	294	16.11	-0.56	11.53	0.002595833	541.9649123	283.9177632	38258	19.84196752	8.800280967
2008	295	10.56	2.78	8.42	0	250.8	167.2760562	38106	19.84599407	9.1798608
2008	296	9.44	0.56	7	0	256.554386	218.3306368	37955	19.81966739	8.957874717
2008	297	12.22	0.56	9.01	0	359.8245614	298.2837098	37804	19.75311776	8.341854633
2008	298	13.89	6.67	11.9	1.540483333	290.6175439	128.9842521	37655	20.1254416	8.4012301
2008	299	14.44	3.33	11.39	0.005191667	400.4912281	33.1285889	37507	20.17370305	9.943415233
2008	300	16.67	3.89	13.15	0	494.9824561	276.2181475	37361	20.60217976	9.468852383
2008	301	8.89	3.89	7.51	0.007791667	161.8526316	192.4381172	37215	21.05822214	9.5886378
2008	302	6.67	1.11	5.14	0.18833125	153.4105263	74.49909344	37071	21.3758545	8.43952235
2008	303	4.44	-0.56	3.07	0.001297917	122.6666667	77.74064121	36928	21.60040081	6.80652015
2008	304	8.89	-0.56	6.29	0	257.7403509	279.5179392	36787	21.50973221	6.5825919
2008	305	18.33	3.33	14.21	0	592.1684211	262.4611995	36647	21.39162855	7.014874533
2008	306	17.78	4.44	14.11	0	540.7368421	172.3029195	36509	21.28798755	8.818536567
2008	307	9.44	3.89	7.92	0	182.1403509	139.7785	36372	21.21137585	8.753033867
2008	308	14.44	7.22	12.46	0	300.322807	190.1249009	36237	21.09366709	9.01019265
2008	309	13.89	8.89	12.51	0.01	218.3298246	73.87448828	36103	20.94091315	9.598966183
2008	310	18.33	8.89	15.74	0	454.7368421	190.3042595	35971	20.85558737	10.56963005
2008	311	20	10	17.25	0	519.4947368	179.5682919	35841	20.77645361	11.336407
2008	312	21.67	9.44	18.31	0.24	645.9719298	224.7218845	35713	20.89056098	11.88558017
2008	313	12.78	4.44	10.49	0	301.1508772	98.94275247	35586	21.22250181	11.11031983
2008	314	8.33	1.67	6.5	0	195.6070175	107.6534427	35462	21.32075207	9.271604183
2008	315	3.89	0.56	2.97	0	84.36491228	114.1663655	35339	21.51220076	7.858047233
2008	316	4.44	0	3.22	0	111.4736842	88.88678342	35219	21.68176769	7.0329933
2008	317	10	0.56	7.4	1.51	276.2175439	166.1591511	35100	22.03983649	7.22607755
2008	318	8.89	5.56	7.97	0	115.0035088	28.16168853	34984	22.60277153	7.51509305
2008	319	11.67	8.33	10.75	0.59	135.8245614	68.40352036	34870	22.58041667	8.6705713
2008	320	13.33	2.22	10.28	0.05	374.4701754	30.35157113	34759	22.38543594	9.609258383
2008	321	5	0.56	3.78	0.04	115.4596491	83.01307707	34649	22.26148408	7.790283567
2008	322	2.78	-3.89	0.94	0	137.4175439	85.47327837	34542	22.15724822	6.477928067
2008	323	-0.56	-6.67	-2.24	0	103.4105263	152.9564791	34438	22.00471401	4.656617983
2008	324	0	-5.56	-1.53	0	99.83157895	156.2417166	34336	21.92191286	3.4786987
2008	325	3.89	-2.78	2.06	0.15	147.677193	91.25705886	34237	21.81137078	3.930760717
2008	326	-1.11	-6.67	-2.64	0	92.70175439	99.84740684	34140	21.7310152	3.564380583
2008	327	-1.67	-6.11	-2.89	0	74.85614035	125.5276958	34046	22.26133518	2.831294317
2008	328	2.78	-6.67	0.18	0.68	173.9508772	204.3470564	33954	22.72045876	2.469676515
2008	329	2.22	-5.56	0.08	0.94	147.7754386	56.98571991	33866	23.19639793	2.120269915
2008	330	3.89	0	2.82	0.05	96.26666667	113.6451719	33780	22.94716874	2.53703195
2008	331	1.67	0	1.21	0	39.15789474	64.0214374	33697	22.70867931	2.69115255
2008	332	5.56	-2.22	3.42	0	183.4526316	183.6151612	33618	22.47906489	2.828267817
2008	333	5.56	-1.11	3.72	0	164.3087719	160.4622134	33541	22.70516816	2.762012017
2008	334	5.56	-3.33	3.11	0.73	200.645614	185.8514585	33467	22.82885216	3.035957943
2008	335	3.89	0	2.82	0.41	96.26666667	18.07070533	33397	22.97833638	2.794495375
2008	336	6.11	0	4.43	0	159.4596491	83.53328979	33329	23.2976136	3.531155212
2008	337	2.22	-5	0.24	0	140.3578947	84.38501003	33265	23.4388375	3.581130722
2008	338	6.67	-4.44	3.61	0	246.7719298	188.7357996	33204	23.01065397	2.91681817
2008	339	7.78	-3.89	4.57	0	272.2807018	20.21484422	33146	22.69438209	3.566464285
2008	340	-1.67	-8.33	-3.5	0	102.2736842	97.98998833	33092	22.31962654	2.224762967
2008	341	-1.67	-8.33	-3.5	0.03	102.2736842	92.78468247	33041	22.64600537	1.418810183
2008	342	-3.89	-9.44	-5.42	0	76.76491228	100.1794584	32993	23.61877915	1.02373055
2008	343	-1.11	-8.89	-3.25	0	118.2526316	54.31157559	32949	23.04778202	0.762486335
2008	344	11.67	-2.22	7.85	1.47	380.6105263	122.1689671	32909	23.64374062	1.387687502
2008	345	12.22	-1.11	8.56	1.365	386.2526316	20.9676208	32872	23.67377327	2.945005083
2008	346	1.67	-1.11	0.9	1.145	62.37894737	13.92084048	32838	23.528238	3.033106483
2008	347	1.67	-6.11	-0.47	0	142.4561404	53.02008959	32808	23.23495418	2.724113417
2008	348	-0.56	-6.11	-2.08	0	96.21052632	166.636568	32782	22.9996809	2.154702083
2008	349	9.44	-1.67	6.39	0.265	294.477193	172.9981739	32759	22.67936644	2.4239456
2008	350	13.89	-1.67	9.61	0.315	459.7824561	48.69102316	32740	22.38615771	3.438138867
2008	351	1.11	-2.22	0.19	1.07	70.59649123	46.90801268	32724	22.22030447	3.259205333
2008	352	3.33	-0.56	2.26	0	92.91929825	28.08563064	32712	22.15285834	2.7973959
2008	353	2.22	-0.56	1.46	3.18	64.64561404	61.16474539	32704	22.18927341	2.976317583
2008	354	5.56	-4.44	2.81	0.02	216	10.62616581	32699	22.09998894	2.420737733
2008	355	-2.78	-5.56	-3.54	0.12	46.58245614	94.68992782	32698	22.51182678	2.046831483
2008	356	1.67	-15.56	-3.07	0	214.0280702	125.4568137	32701	22.76086399	1.6545169
2008	357	-7.78	-14.44	-9.61	0	66.78596491	179.8116793	32707	22.39747028	0.853892362
2008	358	1.11	-11.11	-2.25	3.335	179.6561404	102.8529053	32717	22.51032983	0.241004086
2008	359	9.44	-0.56	6.69	0.315	276.5824561	30.858326	32731	22.41581265	0.245230586
2008	360	0	-5.56	-1.53	0	99.83157895	119.5764133	32749	22.27295412	0.259533345
2008	361	2.78	-4.44	0.79	0.36	145.5578947	126.3513484	32770	22.29855743	0.621395968
2008	362	9.44	0	6.85	0.01	266.8421053	88.09963414	32794	22.1583214	0.773267809
2008	363	12.22	0	8.86	0	369.1719298	98.38084517	32822	22.04741384	1.001080324
2008	364	6.67	-1.11	4.53	0	196.8912281	178.5281677	32854	21.92065358	1.083118947
2008	365	3.89	-1.11	2.51	0.08	118.4	181.1559439	32889	21.76048234	0.956272686
2009	1	1.67	-9.44	-1.39	0	264.1864349	107.2536922	32928	22.17946299	0.590941398
2009	2	-1.67	-9.44	-3.81	0	252.0662643	191.9934595	32971	22.18998242	0.592997263
2009	3	5.56	-5.56	2.5	0	338.4527851	107.0692787	33017	22.08622668	0.396095402
2009	4	1.11	-7.78	-1.33	0	169.1340428	173.7745636	33066	21.92476808	0.361824697
2009	5	3.89	-7.22	0.83	0.01	266.6382496	90.87353103	33119	21.81717711	0.634411214
2009	6	3.89	-3.33	1.9	0.44	227.4430348	129.9203859	33175	21.6935983	0.523533892
2009	7	0	-3.33	-0.92	1.83	50.3711006	24.67318776	33234	21.93605212	0.558141683
2009	8	2.22	-3.33	0.69	0	165.2672999	24.94809883	33296	21.65841842	0.429593151
2009	9	-2.22	-5.56	-3.14	0	139.4944835	99.75008572	33362	21.37118142	0.311407104
2009	10	-2.78	-5.56	-3.54	0.955	49.44759858	147.7283621	33431	21.20233859	0.249778536
2009	11	-0.56	-5.56	-1.93	0.095	108.3172789	36.82900122	33503	21.14492438	0.201448939
2009	12	-3.33	-6.11	-4.1	0	119.1433274	86.61493486	33579	21.16626903	0.218612373
2009	13	-0.56	-6.67	-2.24	0	110.799546	132.1800842	33657	21.13380664	0.207900998
2009	14	0.56	-12.78	-3.11	0.085	98.79150683	65.6559756	33738	21.16844754	-0.039953369
2009	15	-7.78	-13.33	-9.31	0.165	98.60923509	135.3966581	33822	21.27185806	-0.130095666
2009	16	-8.89	-17.22	-11.18	0	94.76454865	138.8717511	33909	21.58619374	-0.438000144
2009	17	-13.33	-18.89	-14.86	0	68.80729022	191.3961683	33999	21.62463174	-0.446218965
2009	18	-6.67	-19.44	-10.18	0.23	44.73166455	152.3730152	34092	21.53842951	-0.322418055
2009	19	-3.33	-7.78	-4.56	0.04	102.9768209	81.99621578	34187	21.35381756	-0.362478682
2009	20	-4.44	-12.22	-6.58	0	118.3555004	141.8295721	34285	21.04051341	-0.298334826
2009	21	-3.89	-12.78	-6.33	0	155.8506765	109.9852583	34386	20.98321684	-0.297580555
2009	22	-4.44	-12.78	-6.74	0	150.5775132	181.5836165	34489	22.36015698	-0.19275281
2009	23	4.44	-5.56	1.69	0	233.9671771	220.3297934	34595	22.62825862	-0.086051338
2009	24	10.56	-2.78	6.89	0.00445	438.592215	203.2444156	34703	22.92368216	-0.248217213
2009	25	-1.11	-12.78	-4.32	0.018333333	108.7026327	139.102245	34814	23.11114522	-0.695011805
2009	26	-7.22	-12.78	-8.75	0.000683333	107.2715216	96.96013507	34926	23.14520417	-0.6714299
2009	27	-2.78	-10.56	-4.92	0.009583333	153.6160651	185.153323	35042	22.9529652	-0.67522184
2009	28	-2.78	-6.67	-3.85	1.365966667	67.40931715	98.87264749	35159	22.82587441	-0.625323248
2009	29	1.67	-8.33	-1.08	0.008666667	211.3752309	41.2553565	35278	22.7284652	-0.569163705
2009	30	-0.56	-8.33	-2.69	0.087966667	154.5088648	202.9543747	35400	22.59091624	-0.577287268
2009	31	0	-11.11	-3.06	0.001216667	203.5899768	142.9048144	35523	22.45036438	-0.617125428
2009	32	-1.11	-11.67	-4.01	0	164.3049002	240.0019115	35649	22.41120597	-0.436206182
2009	33	9.44	-1.11	6.54	0.060466667	152.2796808	246.5659038	35776	22.77665833	-0.342651662
2009	34	3.89	-4.44	1.6	0.004133333	147.6905964	52.10772124	35905	22.89546407	-0.41716836
2009	35	1.67	-8.89	-1.24	0.09065	176.1774139	189.4895373	36036	22.71567499	-0.545501852
2009	36	-3.89	-16.11	-7.25	0.001	147.1429927	163.1717887	36169	22.58318397	-0.781788905
2009	37	-7.22	-15.56	-9.51	0	139.7014676	272.1591262	36303	22.5225352	-0.739787707
2009	38	3.33	-8.33	0.12	0	237.8874798	268.3979157	36440	22.49321879	-0.418762959
2009	39	12.78	-2.78	8.5	0.000316667	419.5200398	164.9763141	36577	22.51499834	-0.468114993
2009	40	10.56	-2.22	7.04	0	386.0580639	164.7039883	36716	22.46489551	-0.192399073
2009	41	7.22	-2.22	4.62	0.157616667	200.2813618	260.0877561	36857	22.79636528	0.283540747
2009	42	10	2.78	8.01	0.013283333	279.2561642	65.04636943	36999	23.29497742	1.42649607
2009	43	16.67	5	13.46	0.499733333	600.4362025	197.2077375	37143	23.20336186	1.732218424
2009	44	6.11	1.11	4.74	0.0026	318.3311801	66.05936114	37287	22.99859738	1.35426397
2009	45	2.22	-0.56	1.46	0.107133333	167.2721316	55.73422436	37433	22.78871019	1.254566053
2009	46	0.56	-5	-0.97	0.005033333	227.6195056	94.16080584	37581	22.6503462	1.176902235
2009	47	2.22	-5.56	0.08	1.67E-05	272.1943102	269.402961	37729	22.53220658	0.900053468
2009	48	0.56	-7.78	-1.74	0	236.7528368	177.701657	37879	22.5585127	0.624521288
2009	49	3.33	-7.78	0.28	0.480608333	161.2265878	297.9344298	38029	22.83862154	0.562335183
2009	50	4.44	-1.67	2.76	0.280633333	194.6061353	30.03120973	38181	23.32011048	0.575147688
2009	51	2.22	-8.89	-0.83	0.008408333	251.1921475	148.715552	38334	23.63175105	0.139543287
2009	52	-3.89	-8.89	-5.26	0	223.1231013	176.2570952	38487	23.27081653	0.038640739
2009	53	3.33	-7.22	0.43	0.093208333	260.7307378	309.7332189	38642	23.20090016	0.111804161
2009	54	0	-6.67	-1.83	0.049475	229.8927661	159.5929055	38798	23.06301801	-0.106102778
2009	55	-3.89	-11.11	-5.87	0	188.3726894	166.6473511	38954	22.8886781	-0.360381787
2009	56	-0.56	-11.11	-3.46	0	249.314548	339.4804726	39111	22.83240089	-0.169163195
2009	57	8.33	-7.22	4.06	0.015366667	428.006074	329.0091401	39269	22.88077969	0.456634912
2009	58	12.78	2.78	10.03	0.744733333	279.7922266	159.0255452	39428	23.07137249	1.073350702
2009	59	12.78	-3.89	8.19	0.000133333	487.0341169	68.8310135	39587	23.55390349	1.242243283
2009	60	1.67	-4.44	-0.01	0	345.0601914	286.507832	39747	23.39592809	1.129675917
2009	61	3.89	-8.33	0.53	3.33E-05	354.7241505	232.568713	39907	23.2544065	0.513456023
2009	62	-5.56	-13.89	-7.85	0	201.4583111	274.5493033	40068	23.10729171	0.091859722
2009	63	-2.22	-13.89	-5.43	0	249.8397379	370.7381528	40230	22.99041585	-0.134418055
2009	64	2.78	-11.11	-1.04	0	353.4684994	373.6943945	40392	22.78910004	0.222493982
2009	65	11.67	-7.22	6.47	0	543.6752737	360.4658082	40555	22.79581935	1.591128935
2009	66	20	8.33	16.79	0.004733333	744.2677937	242.0264095	40718	22.75500573	3.661941667
2009	67	21.67	12.78	19.22	0.840566667	457.0879083	143.6610702	40882	22.80008334	5.0602231
2009	68	15	6.11	12.56	0.508116667	356.2603444	36.63657848	41046	23.12323393	4.68408935
2009	69	10	1.67	7.71	0.06885	242.4558126	97.41549242	41210	23.48976728	3.922303933
2009	70	7.22	2.22	5.85	0.024183333	404.9297895	64.47572982	41375	23.55980723	4.823018283
2009	71	17.22	-2.78	11.72	3.33E-05	795.2153365	323.4801395	41540	23.56965317	3.57351065
2009	72	2.78	-5	0.64	0	319.2155879	265.7772564	41705	23.53297294	3.26449745
2009	73	6.67	-5	3.46	0	326.2932209	389.232379	41870	23.31452987	3.602295367
2009	74	11.11	-1.11	7.75	0	333.8742675	328.334293	42036	23.35448702	4.896749533
2009	75	13.89	2.22	10.68	0.651216667	274.9745386	328.9327042	42202	23.5001205	5.125130783
2009	76	11.67	3.33	9.38	0.127316667	267.5401823	105.8632131	42368	23.99252945	5.551244217
2009	77	12.78	2.78	10.03	0	448.9978894	216.1962287	42534	23.94119543	6.145179867
2009	78	22.78	3.89	17.58	0.003683333	1053.709672	367.7697225	42701	23.7233129	6.74820995
2009	79	12.78	-2.22	8.65	0.004033333	629.3741589	272.7985874	42867	23.69080063	4.972917817
2009	80	6.67	-6.11	3.15	0	449.3988361	287.6626587	43033	23.53573887	3.879189617
2009	81	8.33	-6.11	4.36	0	434.1245019	349.3706225	43200	23.26522831	4.06765255
2009	82	12.22	-3.33	7.94	0	772.7372812	304.099031	43366	23.45433323	4.113649067
2009	83	7.78	-6.67	3.81	0	602.8603107	457.1829227	43533	23.3023441	3.667400933
2009	84	8.89	-6.11	4.76	0.000116667	618.5631465	441.672529	43699	23.1888728	3.5882405
2009	85	10	2.22	7.86	1.215633333	109.8442733	224.6855612	43865	23.28375094	4.112110883
2009	86	5.56	1.67	4.49	0.001033333	272.2866165	39.44270098	44032	23.39861746	5.278441433
2009	87	14.44	2.78	11.24	0.335508333	168.8633258	349.8506542	44198	23.39489714	6.180595833
2009	88	12.22	7.22	10.85	0.7059	227.6366565	78.31227647	44363	23.39383802	6.663504167
2009	89	10.56	1.11	7.96	0.068941667	343.3438813	126.7648248	44529	23.3474026	5.470238667
2009	90	3.89	0	2.82	0	353.6276041	140.5315393	44695	23.242657	6.037169217
2009	91	16.11	0.56	11.83	0.710925	256.8713881	445.6011447	44860	23.2695899	6.149077083
2009	92	8.89	6.11	8.13	0.019375	314.3319836	93.6825457	45025	23.64928864	7.900946067
2009	93	18.89	6.67	15.53	1.815816667	278.580352	407.5150242	45190	23.72142755	8.7522632
2009	94	15.56	3.33	12.19	0.02295	640.2511348	70.62081598	45354	23.9673188	7.71594885
2009	95	8.89	2.22	7.06	0	645.7900798	332.2399327	45518	24.01531925	7.8282294
2009	96	18.89	2.78	14.46	0.451816667	490.0568742	467.3746864	45681	24.15913823	8.074059017
2009	97	12.22	-1.11	8.56	0.01775	442.7006644	157.2971139	45845	24.39710289	6.091749533
2009	98	3.89	-0.56	2.67	0.001783333	422.2031368	217.5955278	46007	24.08115334	5.906940733
2009	99	10	-0.56	7.1	0	604.6907822	316.7401649	46169	23.92499442	6.201961117
2009	100	15	1.11	11.18	0.184116667	399.0540823	487.619293	46331	23.70708046	6.25099075
2009	101	9.44	3.89	7.92	0.205133333	503.8963151	92.89239908	46492	23.50166272	7.347819683
2009	102	12.78	-1.11	8.96	0	778.1438675	401.4649583	46653	23.31480148	6.66879815
2009	103	10	-2.78	6.49	0.000966667	547.4747602	517.9909127	46813	23.17148982	6.1267449
2009	104	12.78	-1.11	8.96	1.050633333	119.0061886	334.6706789	46972	23.60886511	6.233354633
2009	105	7.78	5	7.01	1.37	116.3689887	42.16044638	47131	23.99655608	6.429903483
2009	106	7.78	-0.56	5.49	0.000516667	416.5154791	116.866887	47289	23.96047257	7.183044217
2009	107	18.33	1.11	13.6	0	1103.46758	515.6773805	47446	24.18085201	8.100519667
2009	108	21.11	4.44	16.53	0	1361.317267	522.179391	47602	23.75348952	9.216704633
2009	109	23.33	10.56	19.82	0.003033333	1347.874024	497.6601119	47758	23.49585469	10.05577963
2009	110	20	5	15.88	0.924775	348.6805386	274.9248261	47912	23.40320182	8.6613176
2009	111	7.78	4.44	6.86	0.536141667	175.0739881	68.55081085	48066	23.38099519	8.794954867
2009	112	17.22	5	13.86	0.023133333	482.297071	283.633884	48219	23.16568745	7.9391236
2009	113	11.11	2.22	8.67	0.143816667	464.8843314	306.4745156	48370	22.96826846	7.84872205
2009	114	12.78	3.33	10.18	0.030466667	606.7031419	367.9094564	48521	22.65882298	8.74412315
2009	115	23.89	5	18.69	0	1212.598359	404.7014645	48671	22.44086892	11.06692868
2009	116	30	13.89	25.57	0	2066.634528	404.9863599	48819	22.12472093	12.872462
2009	117	31.11	15	26.68	0	2221.143246	510.2830261	48966	22.12774053	14.164437
2009	118	32.22	16.67	27.94	0	1939.849546	506.7889555	49112	22.12486442	14.655188
2009	119	29.44	6.67	23.18	0.0001	1225.275917	465.2461584	49257	23.09723839	13.543775
2009	120	19.44	7.22	16.08	0.090716667	512.5185758	378.6904823	49401	22.7078702	12.18818
2009	121	17.22	11.11	15.54	0.344066667	329.7594936	111.5797911	49543	22.5002079	12.70728017
2009	122	21.67	11.11	18.76	0.6231	726.5510594	221.1268936	49683	22.51505963	12.89560767
2009	123	17.78	8.33	15.18	0.264616667	280.056739	307.652148	49823	22.26062519	11.576427
2009	124	14.44	8.33	12.76	1.5003	146.8725817	168.1194682	49960	22.75394447	11.287524
2009	125	11.11	9.44	10.65	0.673058333	196.1258044	74.68945862	50096	23.29396117	11.0739125
2009	126	13.33	9.44	12.26	0.68195	211.5938044	121.6103906	50231	23.48656641	11.61468183
2009	127	18.89	11.11	16.75	0.897275	522.6763283	219.1668965	50363	23.63576803	12.423324
2009	128	21.11	11.11	18.36	0.219233333	366.700773	312.1856543	50495	23.28386214	12.34042883
2009	129	22.22	12.78	19.62	0.023866667	757.6694342	252.5315734	50624	23.05545998	13.245162
2009	130	24.44	8.89	20.17	0.001066667	1085.621956	294.430575	50751	23.66985804	12.41621333
2009	131	15.56	6.11	12.96	0.02545	368.7424103	251.5088398	50877	23.35885018	11.11687122
2009	132	15.56	3.89	12.35	0.008583333	620.5911312	210.2466567	51000	23.21244766	10.92327265
2009	133	16.67	4.44	13.31	0	702.4807696	464.8692192	51122	23.58904015	11.17875647
2009	134	21.67	7.22	17.69	1.647083333	282.4456908	461.4560921	51241	23.69139836	12.0907205
2009	135	20	11.11	17.56	0.424166667	606.2392927	235.1850779	51358	23.44577821	13.3921065
2009	136	24.44	11.11	20.78	1.875883333	472.1160068	488.7758628	51473	23.10786831	14.291933
2009	137	26.11	7.78	21.07	0.455283333	1279.800578	318.3492443	51586	22.77601685	13.42447633
2009	138	15	3.89	11.94	0	799.4811004	482.7570108	51697	22.79601305	11.64920378
2009	139	15.56	2.78	12.04	0	674.835982	588.8442368	51805	23.62137374	11.26339255
2009	140	22.22	5.56	17.64	0	1029.752062	583.7330695	51910	23.41448915	12.1660175
2009	141	28.33	11.11	23.6	0	1433.767087	567.7014764	52014	24.16819198	13.10204817
2009	142	29.44	13.89	25.17	0.00005	1243.95323	581.8925721	52114	24.06540262	13.89305683
2009	143	28.89	15.56	25.22	0.097833333	798.0652995	440.1440955	52212	23.49065795	14.75360467
2009	144	27.78	15.56	24.42	0.219808333	616.3887921	345.3175601	52308	23.04505275	15.196075
2009	145	29.44	16.11	25.78	0.215925	1196.570604	378.3657781	52400	22.7490689	15.70710833
2009	146	26.11	12.22	22.29	0.580183333	513.7200429	520.820552	52490	22.36636313	13.98719683
2009	147	12.78	9.44	11.86	0.1383	127.795897	90.56223542	52577	22.26787615	13.088926
2009	148	16.67	10.56	14.99	0.526358333	156.1560378	160.3955291	52662	21.98269598	14.1169635
2009	149	22.78	16.67	21.1	1.356208333	345.4430767	227.057191	52743	21.94317022	14.96284217
2009	150	20	12.78	18.01	8.33E-05	761.5117931	182.0292381	52821	21.67548164	14.57022583
2009	151	21.67	10	18.46	0	917.7313413	532.4462776	52896	21.55677402	13.83123
2009	152	21.11	5	16.68	0.002316667	748.3944377	543.0811189	52969	21.61910865	13.007849
2009	153	22.78	8.33	18.81	0.405066667	391.0654887	469.5816213	53038	21.99514206	14.18153983
2009	154	23.89	15.56	21.6	1.566466667	162.8550763	320.1288789	53103	22.32002873	14.19061167
2009	155	16.67	11.11	15.14	0.04065	320.1857322	54.07758523	53166	22.16858851	13.7514935
2009	156	17.78	11.11	15.94	0.610183333	142.9780977	215.1975339	53225	21.87015586	13.4810795
2009	157	14.44	12.22	13.83	0.05565	457.0342452	73.25256916	53281	21.4642468	14.44826383
2009	158	24.44	12.78	21.24	0	781.4197036	549.2593905	53334	20.96811356	14.92855367
2009	159	27.22	15.56	24.01	1.172641667	665.3370689	521.523158	53383	20.62008239	15.89600883
2009	160	27.78	18.33	25.18	0.816958333	607.6812536	386.0446626	53429	20.5951309	16.85053367
2009	161	28.33	16.67	25.12	0.053866667	534.0691892	371.3294299	53471	20.17327716	16.66832267
2009	162	25	17.78	23.01	0.770391667	246.4732931	317.2232413	53510	20.25138378	16.451369
2009	163	22.22	17.78	21	0.602158333	384.3381698	156.4516802	53546	21.11678568	16.75228583
2009	164	23.89	16.11	21.75	0	696.7668218	265.0355808	53577	20.70612788	16.6149545
2009	165	25	11.11	21.18	0.000166667	901.0650168	363.8884133	53606	20.50327484	16.06725033
2009	166	25	12.78	21.64	0	948.8202684	549.9435489	53630	20.07214883	15.84487767
2009	167	26.67	15	23.46	0	568.0934847	546.1964239	53651	19.33141789	15.6101455
2009	168	22.22	15.56	20.39	1.91045	280.2558962	185.9339217	53669	19.49780963	15.20846217
2009	169	16.67	13.89	15.9	0.416083333	268.2314446	135.3894428	53682	20.28153438	15.40802
2009	170	21.67	15.56	19.99	0	551.8582417	215.0979332	53693	20.00571625	15.9651195
2009	171	24.44	16.11	22.15	3.7643	322.3490787	337.5253759	53699	20.06598675	16.43381717
2009	172	24.44	16.67	22.31	0.360316667	646.0100973	144.8063749	53702	19.87175553	16.46886633
2009	173	23.89	15.56	21.6	1.67E-05	828.393316	275.9870655	53701	19.61923028	16.77141617
2009	174	27.22	15.56	24.01	0	1047.297317	401.3252339	53696	19.73584618	16.93585567
2009	175	27.22	14.44	23.71	0.0001	1122.611537	548.6287656	53688	20.09956079	17.11683667
2009	176	29.44	16.11	25.78	0	996.8158224	581.3526181	53676	20.24872227	17.48824283
2009	177	30.56	18.89	27.35	0.1578	778.0274218	500.0678261	53661	20.37412478	18.13777007
2009	178	26.67	15.56	23.61	0	921.1815165	404.0150336	53641	19.99365747	17.94212855
2009	179	26.67	15.56	23.61	0.036816667	359.5379371	497.1302886	53619	19.30129853	17.1483993
2009	180	21.11	13.89	19.12	0.392533333	571.5133907	114.9776487	53592	19.39547845	17.21030395
2009	181	26.11	15.56	23.21	1.373766667	317.4763943	486.2208679	53562	20.26207581	17.1784577
2009	182	22.78	13.89	20.33	0.00705	384.479247	304.4872386	53529	20.81627508	16.95295642
2009	183	24.44	15	21.85	1.606516667	292.929466	331.1161701	53491	21.35063556	17.06240763
2009	184	22.22	15.56	20.39	0.00525	508.6422429	239.8289226	53451	21.12508818	16.98831817
2009	185	22.22	15	20.24	0	843.0129499	308.4749094	53407	20.78280257	17.03938227
2009	186	23.33	11.11	19.97	0	777.5442578	467.2145752	53359	20.41268876	16.51611964
2009	187	23.89	12.22	20.68	0	853.5576772	539.8947939	53308	20.1646587	16.29999873
2009	188	27.22	13.89	23.56	0	1176.476636	514.3112415	53254	19.87389543	16.54125389
2009	189	26.11	11.67	22.14	0	808.670287	506.6120798	53196	19.60013228	16.05570914
2009	190	22.78	12.78	20.03	0	719.4379253	402.0025945	53135	19.30850678	16.11414468
2009	191	26.11	13.89	22.75	0	704.8211986	442.673096	53071	19.10728195	16.37592263
2009	192	26.11	16.67	23.51	1.671016667	447.6598914	406.2644975	53004	18.8729945	16.95263985
2009	193	25.56	17.22	23.26	0.033116667	901.6685182	256.2980888	52933	19.27883774	17.46677048
2009	194	25	14.44	22.1	0.000566667	1029.287788	540.4142533	52860	19.50736038	16.76409421
2009	195	24.44	11.11	20.78	0.017533333	973.6450359	537.844941	52783	19.84832057	15.99129279
2009	196	25	11.11	21.18	0.000616667	832.3341124	574.729552	52703	20.11300264	15.95154951
2009	197	27.78	13.33	23.81	0.390866667	986.6266601	525.3832826	52620	19.72582079	17.65805117
2009	198	30	18.33	26.79	0.475958333	450.5324709	457.7613901	52535	19.22125865	17.11260424
2009	199	22.78	13.89	20.33	0.791058333	540.2532892	153.4717691	52446	18.74100977	16.79556086
2009	200	20.56	13.33	18.57	0.0065	532.8747459	283.6734328	52355	18.35495229	16.46485735
2009	201	23.89	14.44	21.29	0	675.0930108	429.4102114	52261	18.09115188	16.49872351
2009	202	26.11	15.56	23.21	0.097	693.6484257	370.0495756	52164	17.8342681	17.23818584
2009	203	25	15.56	22.4	0.500133333	372.1661505	376.7952714	52065	17.62258239	17.30206311
2009	204	25	16.67	22.71	2.318016667	320.5875517	247.0665075	51963	17.41749587	18.10391324
2009	205	25.56	17.22	23.26	0.1648	532.685326	264.7712944	51858	17.57845916	18.24939646
2009	206	26.11	15	23.06	0.383116667	481.6771529	404.1287388	51751	17.80631612	17.86443013
2009	207	27.78	16.67	24.72	0.291816667	476.1631711	371.0002578	51642	17.51945946	18.26046599
2009	208	26.11	18.33	23.97	0	732.9878967	313.6168877	51530	17.3748279	18.38234737
2009	209	27.78	17.22	24.88	0	788.7211924	443.1560276	51417	17.04024202	18.44488622
2009	210	28.89	18.33	25.99	1.169833333	256.614042	452.0474968	51300	16.76634203	18.33304527
2009	211	22.78	18.33	21.56	0.069583333	508.5388685	157.6491053	51182	17.93105471	18.92111223
2009	212	27.78	19.44	25.49	1.46685	246.626154	350.745251	51062	17.76150284	19.01213427
2009	213	22.22	16.67	20.69	0.0032	528.009103	117.1948496	50939	17.66913257	19.1675374
2009	214	27.22	17.22	24.47	0.120166667	503.28073	483.6020178	50815	17.49394279	19.11019377
2009	215	25.56	14.44	22.5	0	667.5599216	260.6953662	50688	17.38839763	18.58394387
2009	216	25.56	15.56	22.81	0	624.4665166	485.0994427	50560	16.97010199	18.43062433
2009	217	28.33	16.67	25.12	0	756.4169314	469.7253351	50430	16.60582683	18.73414943
2009	218	26.11	12.78	22.44	0	846.0942866	305.8291272	50298	16.12501405	17.7620063
2009	219	25	12.22	21.49	0	668.5008427	407.4076812	50164	15.7752682	17.02655827
2009	220	24.44	13.89	21.54	0.027166667	634.6702583	398.4534808	50029	15.57411772	17.3456921
2009	221	26.11	16.11	23.36	0.42765	442.6475989	384.8474701	49892	15.48806136	18.521139
2009	222	29.44	20	26.85	0.216141667	806.3058002	232.0248699	49754	15.39238004	19.79586393
2009	223	32.22	20	28.86	0.231791667	614.5217081	406.8648197	49614	15.19877637	19.80562637
2009	224	27.78	18.33	25.18	1.749625	449.6914643	257.5448487	49472	15.07600182	19.39451487
2009	225	26.67	16.67	23.92	0.089208333	530.6079843	259.6294194	49330	15.47774493	19.1043639
2009	226	26.67	17.78	24.22	0	626.9497425	435.8132456	49186	15.57856448	19.2003656
2009	227	28.89	17.78	25.83	0	794.0750932	441.7354402	49040	15.54616526	19.6118005
2009	228	30.56	19.44	27.5	0	901.5865104	480.9790268	48894	15.45802737	19.70703327
2009	229	31.11	20	28.06	0	1105.731535	474.91641	48746	15.27556367	20.00755901
2009	230	32.78	20.56	29.42	0.431825	611.56991	484.2985725	48597	15.91260779	20.2415764
2009	231	30.56	20.56	27.81	0.015741667	676.9374703	326.040098	48446	15.44641936	20.98747883
2009	232	29.44	20	26.85	0	749.152435	308.7519722	48295	15.48074654	20.52965485
2009	233	29.44	20.56	27	0.485283333	492.655685	331.7114652	48143	15.03612859	20.68413435
2009	234	26.67	18.89	24.53	0.001233333	559.8637232	263.1043124	47990	14.61766827	20.33386644
2009	235	26.67	17.78	24.22	0	846.3101499	276.8344367	47836	15.05753556	19.90870181
2009	236	25.56	14.44	22.5	0	576.5525923	395.0023937	47681	15.29334039	18.71164586
2009	237	25.56	14.44	22.5	0	667.7699726	349.709323	47525	15.28136316	18.49436192
2009	238	27.22	16.11	24.17	0	897.3468059	461.9949102	47368	15.55803166	18.65333005
2009	239	28.89	17.22	25.68	0.02615	534.4074612	419.205698	47210	15.56268747	18.88681579
2009	240	19.44	16.67	18.68	0.91275	219.3969411	116.8496081	47052	16.53656766	18.41659058
2009	241	20	16.67	19.08	2.108033333	330.555097	65.60825961	46893	16.85910327	18.69921189
2009	242	26.11	14.44	22.9	0	761.1388359	289.9128572	46734	16.72461756	17.70273605
2009	243	22.22	11.11	19.17	0	540.8998917	431.0291392	46573	16.51112114	16.35215266
2009	244	18.89	7.78	15.83	3.33E-05	474.5543285	356.4245622	46413	16.06885891	15.19571253
2009	245	20.56	8.33	17.19	0	529.277754	483.7783608	46251	16.05968055	14.86966747
2009	246	23.33	10	19.67	0	586.9153305	464.2561938	46089	16.43556558	14.9963573
2009	247	23.89	10.56	20.22	0	627.404906	458.1676692	45927	16.45494393	15.44803263
2009	248	25	12.22	21.49	0	667.4029684	450.3393559	45764	16.39346556	15.8886812
2009	249	25.56	12.78	22.04	0	723.5662468	421.7767925	45600	16.19145059	15.99601293
2009	250	25	13.89	21.94	0.009341667	385.7817956	400.7017768	45437	16.22831469	16.37611647
2009	251	20	17.22	19.24	0.003408333	409.4359562	132.3105756	45272	16.19540543	16.6643653
2009	252	22.22	16.11	20.54	0.000916667	474.4212481	184.3291216	45108	16.38081566	16.72595863
2009	253	22.78	15	20.64	0.013333333	708.5729684	207.2156616	44943	17.1156729	16.38360603
2009	254	20	12.78	18.01	2.071841667	218.3804631	386.6028197	44778	17.03263576	15.04931047
2009	255	15	12.22	14.24	0.056508333	192.5441047	54.11116522	44613	16.95532816	15.2955757
2009	256	19.44	13.89	17.92	0	587.8569736	93.33371707	44447	16.99964029	16.03736277
2009	257	24.44	15	21.85	0	598.2023368	413.301059	44281	16.9910494	16.50685607
2009	258	23.89	13.89	21.14	0.00035	456.242422	285.046892	44115	17.41797276	16.27195733
2009	259	24.44	11.67	20.93	0	743.9274831	255.7754867	43949	18.77868005	15.8984923
2009	260	19.44	11.67	17.31	0.010241667	315.1932069	332.3896524	43783	19.43652982	15.31886033
2009	261	16.11	13.89	15.5	0.014991667	481.6589997	68.17124494	43617	19.73194374	15.6359254
2009	262	23.33	10	19.67	0	668.9773209	367.65397	43450	19.52418794	14.8548639
2009	263	20	5.56	16.03	0	394.0091204	437.8202475	43284	19.37703273	14.08279767
2009	264	23.33	6.11	18.6	0	470.319669	355.5787032	43117	19.34203359	14.91440467
2009	265	23.89	14.44	21.29	0.077166667	413.0755619	361.877043	42951	19.12903086	15.960007
2009	266	23.33	18.33	21.96	0.454383333	323.0048201	123.6612464	42784	19.09501661	17.07598717
2009	267	26.11	17.78	23.82	0	550.8505766	243.5033255	42618	21.5978479	17.53127967
2009	268	22.78	13.33	20.18	0	766.0699265	175.8685157	42452	21.50898663	16.59682817
2009	269	20	12.22	17.86	2.91225	393.1857879	353.4289465	42286	20.94874948	14.78196333
2009	270	14.44	11.67	13.68	1.75345	97.59836475	55.3863193	42120	20.80708884	14.42063983
2009	271	16.67	12.22	15.44	0.7834	392.4936873	119.6989052	41954	21.25157559	13.91818233
2009	272	20	11.11	17.56	0.0036	614.0463142	215.2323345	41788	20.28320149	13.34449133
2009	273	13.89	10.56	12.97	0.002233333	474.1497003	66.02068244	41623	19.66320173	13.06155933
2009	274	13.33	6.67	11.5	0	425.1628331	188.1970131	41458	20.33371516	11.99129267
2009	275	12.78	3.89	10.33	0.634591667	132.6601074	199.9555958	41293	20.87794124	11.18761613
2009	276	15	5	12.25	0.372508333	279.36355	177.7549899	41129	20.87857473	12.5127135
2009	277	18.89	7.78	15.83	0	395.4028318	297.1110679	40964	20.84333381	12.11972083
2009	278	15.56	7.78	13.42	0	431.4231722	176.0439044	40801	20.81399942	11.86395983
2009	279	15.56	4.44	12.5	0	370.5361453	244.721245	40637	20.74821129	11.29502767
2009	280	17.78	5	14.26	0.267583333	564.702324	303.2312257	40474	20.77869668	12.1496414
2009	281	13.33	7.78	11.81	0	466.8655743	175.9443936	40312	20.78150429	11.98804853
2009	282	18.33	8.33	15.58	1.115225	171.0742548	278.3035713	40150	20.76284877	12.58137183
2009	283	17.78	11.67	16.1	0.475775	390.5188521	79.50955399	39989	20.8964109	12.90519267
2009	284	14.44	5	11.85	0	373.7990604	167.0436038	39828	20.89300499	10.98520655
2009	285	12.78	3.89	10.33	0	340.3996733	267.9895278	39667	20.81619667	9.909569983
2009	286	9.44	3.89	7.92	0.005983333	283.6007623	107.9174362	39508	20.75018404	10.10350045
2009	287	13.33	0	9.67	3.33E-05	252.7312396	122.7140012	39349	20.69287957	8.940656483
2009	288	7.22	0.56	5.39	2.513708333	65.32204503	114.3173629	39191	20.83820708	7.809564817
2009	289	3.89	-0.56	2.67	1.276416667	39.74306619	32.69518732	39033	21.5089183	6.53886945
2009	290	1.67	0	1.21	0.679866667	44.46893486	82.31815086	38876	21.64428833	6.80197175
2009	291	3.89	0	2.82	0.185891667	193.5736985	68.53439145	38720	21.55915006	7.369737967
2009	292	10	-1.11	6.94	0	279.1027575	200.0303945	38565	21.47408121	7.149981483
2009	293	12.78	0	9.26	0	396.3782907	315.2490419	38411	21.6813306	8.152777783
2009	294	19.44	6.67	15.93	3.33E-05	513.2498888	264.5722888	38258	22.25390296	9.0647486
2009	295	21.11	7.78	17.44	0	743.1655047	215.5199391	38106	22.15777835	9.892166667
2009	296	21.67	8.33	18	0.837983333	421.5513789	244.2468288	37955	22.14504396	10.68388063
2009	297	17.22	11.11	15.54	7.42895	347.2655167	89.52584083	37804	22.48890833	11.86467267
2009	298	18.33	6.67	15.12	0	724.291248	104.8014438	37655	22.80183438	11.15617417
2009	299	15	2.78	11.64	0	419.3229011	280.9720693	37507	22.76456538	10.02796438
2009	300	15.56	3.33	12.19	0.064833333	201.9614038	259.9811875	37361	22.7133638	9.9535611
2009	301	13.33	7.78	11.81	1.282408333	131.5099396	104.312621	37215	23.25545634	10.89745883
2009	302	15	11.11	13.93	4.17E-05	246.9586021	62.65340172	37071	23.0390868	11.37666567
2009	303	13.33	10	12.42	0.013566667	246.492101	59.27796856	36928	22.84663272	11.32808183
2009	304	14.44	11.11	13.53	0.110216667	391.4013184	44.60337458	36787	22.69643962	11.50586767
2009	305	16.67	5.56	13.61	0	645.7503674	43.72679481	36647	22.69121183	10.54589233
2009	306	11.67	-0.56	8.31	3.33E-05	308.9746219	223.4798038	36509	22.58118947	9.026255917
2009	307	12.78	0	9.26	0.032983333	442.227101	255.1609444	36372	23.12318916	8.666372033
2009	308	12.22	-1.11	8.56	0.001616667	384.6979668	203.9803469	36237	22.86187045	7.779666617
2009	309	7.78	-1.11	5.33	0.077083333	213.3716827	143.312966	36103	22.66469274	7.355397917
2009	310	7.22	0.56	5.39	0	391.6988879	84.32062984	35971	22.53354991	6.804435883
2009	311	7.78	-2.22	5.03	0	335.0895566	248.9564456	35841	22.43293527	6.170619217
2009	312	13.33	-2.22	9.06	0	394.3304765	223.228206	35713	22.42617047	7.446088667
2009	313	21.11	5.56	16.83	0	457.0171514	232.3032623	35586	22.54476532	8.1939956
2009	314	19.44	5.56	15.62	0	543.8915295	139.4095688	35462	22.83024791	8.974313883
2009	315	14.44	5.56	12	0.015083333	742.7692553	101.928069	35339	22.76225255	8.74380695
2009	316	10.56	2.22	8.26	0	635.896958	124.5269481	35219	22.59923491	8.0766905
2009	317	10	2.78	8.01	6.67E-05	609.4263692	135.8652623	35100	22.61581888	8.592113667
2009	318	15.56	5	12.65	0.003733333	362.9603322	197.3172957	34984	23.11904581	9.749885183
2009	319	14.44	4.44	11.69	1.67E-05	298.1035457	96.23801837	34870	23.34390231	9.837582867
2009	320	19.44	5.56	15.62	0	734.7430277	200.4179861	34759	23.31994833	9.799887967
2009	321	12.78	5.56	10.79	0	794.3924701	209.2526818	34649	23.10787121	9.10501165
2009	322	8.89	2.78	7.21	0	365.799792	72.30003358	34542	22.76676582	8.145310883
2009	323	10	4.44	8.47	1.212533333	110.5722992	123.1354149	34438	22.88886338	8.815306467
2009	324	11.11	6.11	9.74	0.043433333	439.1936874	38.48605565	34336	23.08047459	8.90845925
2009	325	10	5	8.62	0	315.3315028	137.4489898	34237	22.96800957	8.56904445
2009	326	10.56	5	9.03	0	191.8939447	82.2773327	34140	22.36045656	7.691278233
2009	327	8.33	3.89	7.11	0.046891667	215.7106532	56.43518307	34046	22.88116592	7.662626617
2009	328	9.44	4.44	8.07	0.679641667	79.92162581	65.39809066	33954	22.99058892	8.287681933
2009	329	9.44	6.67	8.68	0.029666667	100.914755	53.35864436	33866	23.04086547	8.597900933
2009	330	10.56	2.22	8.26	0.4603	98.29357923	64.67200249	33780	24.02749855	8.127690283
2009	331	10	2.22	7.86	0.246758333	323.7376413	98.79997258	33697	23.58902382	7.186889117
2009	332	5.56	1.67	4.49	0.036091667	219.0044832	70.3225822	33618	23.32530471	6.3154757
2009	333	5	0	3.62	0	273.8465278	68.2028001	33541	23.16780553	6.061325467
2009	334	16.11	0.56	11.83	0.126091667	443.3355542	175.8645776	33467	22.98909339	7.146477767
2009	335	11.11	-0.56	7.9	0.000958333	346.3394737	44.24240884	33397	22.26759288	5.903040033
2009	336	6.11	-2.22	3.82	0.656725	74.259888	82.91398039	33329	21.96509407	5.09524305
2009	337	12.78	-1.67	8.81	0.898241667	269.6985342	47.71926146	33265	22.86812981	6.534470833
2009	338	11.67	2.78	9.22	0.00245	404.3970804	40.42570095	33204	22.69359864	6.068719917
2009	339	5	-1.11	3.32	0.464875	103.075495	97.7258609	33146	22.56152539	4.86336525
2009	340	0.56	-3.89	-0.67	0.001691667	169.5391919	27.09822768	33092	22.54325067	4.09177895
2009	341	0.56	-5.56	-1.12	0.002908333	114.5965167	196.4593171	33041	22.46699508	3.546908383
2009	342	1.11	-5.56	-0.72	0.000591667	191.6584817	61.5149668	32993	22.40964707	3.82000145
2009	343	3.33	-1.11	2.11	3.267383333	93.08141013	150.7196553	32949	22.43110567	3.383344317
2009	344	6.11	-3.33	3.51	0.002883333	362.2057389	106.8167789	32909	22.36216052	2.942909783
2009	345	-2.22	-10	-4.36	1.67E-05	241.5653984	114.973875	32872	22.06605332	2.353698067
2009	346	-2.78	-9.44	-4.61	0	243.8525446	140.7799419	32838	21.96554273	1.979540217
2009	347	2.22	-5.56	0.08	1.664683333	137.7923547	189.7446281	32808	21.98502689	2.006717217
2009	348	5	-0.56	3.47	0.000416667	126.5436996	35.19443428	32782	21.97308533	2.538182533
2009	349	7.78	2.78	6.4	0.1445	169.7839001	90.29953652	32759	21.83981347	2.910699933
2009	350	7.78	-3.89	4.57	0.01185	351.5186021	36.35838582	32740	21.69277735	2.349318667
2009	351	-1.11	-7.22	-2.79	0.001183333	194.6349855	160.9634462	32724	21.7478814	1.7363368
2009	352	-1.67	-6.67	-3.04	0	190.6060358	145.8576051	32712	22.47949345	1.400756217
2009	353	0	-6.67	-1.83	0.758841667	69.38089985	122.5801458	32704	23.04895836	1.064801183
2009	354	-4.44	-7.22	-5.21	0.020958333	141.3702265	42.6528537	32699	22.97351744	1.144172367
2009	355	0	-6.11	-1.68	0.001766667	163.3830332	172.1649052	32698	22.86630161	1.121802233
2009	356	0.56	-3.33	-0.51	0.00515	181.8306143	137.7789723	32701	22.80607071	1.189809383
2009	357	1.11	-9.44	-1.79	0	198.3102232	78.88118989	32707	22.52963722	0.652684333
2009	358	-1.67	-9.44	-3.81	0	130.5850733	190.32767	32717	22.51449706	0.470407783
2009	359	0	-5.56	-1.53	0.436566667	66.77951248	187.0459104	32731	22.79213501	0.812317743
2009	360	6.11	-1.67	3.97	2.204083333	54.83178188	29.62583433	32749	24.63847094	1.470252667
2009	361	6.67	-2.78	4.07	0.003083333	160.2968077	34.96792935	32770	24.06224623	2.01228632
2009	362	5	-2.78	2.86	0.011341667	256.0515326	135.5379682	32794	23.34507801	1.5599052
2009	363	-2.22	-7.78	-3.75	0.049575	202.1849359	90.82887628	32822	23.04232772	0.803181533
2009	364	-4.44	-9.44	-5.82	0	146.7228171	157.2050336	32854	22.77840424	0.490637362
2009	365	-1.67	-9.44	-3.81	0.426108333	66.96507975	120.9479087	32889	22.4913887	0.527598248
2010	1	0	-3.89	-1.07	0.021008333	111.5198336	58.85157026	32928	22.36788531	0.92637268
2010	2	2.78	-7.78	-0.12	0.079366667	216.0043044	76.43325689	32971	22.20611061	0.594004628
2010	3	-6.67	-11.11	-7.89	0.004641667	118.5879497	124.006574	33017	22.05208059	0.289720833
2010	4	-6.11	-10.56	-7.33	0.005375	120.014054	57.53298292	33066	21.92850418	0.18940162
2010	5	-3.89	-7.78	-4.96	0.004258333	132.4565973	74.66048023	33119	22.00033782	0.155303472
2010	6	-2.78	-7.78	-4.15	0.024658333	121.4258647	60.37466754	33175	22.11450899	0.176428935
2010	7	-1.11	-3.89	-1.87	0.000208333	165.2800878	46.45318172	33234	22.11746261	0.16021875
2010	8	-1.67	-6.11	-2.89	0.136158333	125.2094245	59.25514386	33296	22.30076427	0.059362269
2010	9	-4.44	-8.89	-5.67	0.005166667	176.6695034	146.4455575	33362	22.02584462	-0.088073148
2010	10	-2.78	-13.33	-5.68	0	146.0890171	204.6442071	33431	21.78806002	-0.21884375
2010	11	-4.44	-13.33	-6.89	0.016116667	127.458138	183.3926102	33503	21.8440768	-0.246042823
2010	12	-2.22	-9.44	-4.21	0.00085	147.7534395	109.2828147	33579	21.66209067	-0.301344443
2010	13	-2.22	-6.67	-3.44	0	169.3752225	145.9614954	33657	21.49598546	-0.251347917
2010	14	0	-7.78	-2.14	0	186.0429463	124.6275607	33738	21.44480423	-0.289144677
2010	15	7.22	-7.22	3.25	0	245.8080478	204.0215604	33822	21.47815193	-0.038535185
2010	16	5.56	2.22	4.64	0	241.7271257	42.51404199	33909	21.58314664	0.17089074
2010	17	9.44	-1.67	6.39	1.630925	67.46757635	119.8216613	33999	21.76140616	0.242331018
2010	18	3.89	-1.11	2.51	0.043708333	129.5067224	18.89371435	34092	21.82975254	0.818392362
2010	19	6.11	2.22	5.04	0.014733333	179.3813113	144.9214786	34187	21.69245553	1.225505317
2010	20	4.44	-2.22	2.61	0	253.3243194	32.4314827	34285	21.90475164	1.257709493
2010	21	1.67	-7.22	-0.78	0	178.2963888	117.8500592	34386	21.98901073	0.968598835
2010	22	3.33	-6.67	0.58	0.065466667	242.7984897	210.5379018	34489	22.083156	1.256721302
2010	23	2.78	-4.44	0.79	0	267.359495	75.30720842	34595	22.2486097	1.18495602
2010	24	5	-5	2.25	1.057183333	142.2054918	212.0053463	34703	22.62926671	1.45863658
2010	25	13.33	1.67	10.12	4.141916667	284.4608514	49.79734538	34814	23.12509804	3.596964583
2010	26	11.67	-1.67	8	0.027716667	387.2378933	56.79934121	34926	22.92772663	2.875362967
2010	27	0.56	-3.89	-0.67	0.003583333	234.7107231	128.9458054	35042	22.99384566	1.93263495
2010	28	0.56	-3.89	-0.67	0.068183333	202.1964405	165.6140968	35159	22.84690692	1.267060183
2010	29	1.67	-13.33	-2.46	0	232.2756603	140.5857328	35278	22.69473376	0.498521067
2010	30	-7.22	-13.33	-8.9	0	153.0169118	203.7244128	35400	22.75450604	0.007672917
2010	31	-8.33	-13.89	-9.86	0	155.742414	103.6893934	35523	22.83295054	-0.363520138
2010	32	-2.22	-13.33	-5.28	0	191.5766279	250.4963726	35649	22.92129333	-0.440102547
2010	33	-1.11	-7.78	-2.94	0.048866667	149.8203472	191.7359022	35776	23.1085784	-0.294845138
2010	34	1.67	-6.67	-0.62	0.1417	138.2543235	126.8389591	35905	23.19884066	-0.106673618
2010	35	1.11	-4.44	-0.42	0	282.8756916	84.81270878	36036	23.28911681	-0.175012268
2010	36	3.33	-4.44	1.19	0.297025	169.1546818	252.3368535	36169	23.25692259	-0.127424768
2010	37	1.11	-5.56	-0.72	1.478475	179.3266347	51.63014169	36303	23.16191935	-0.240351852
2010	38	-2.22	-15.56	-5.89	1.67E-05	140.014984	153.0824622	36440	22.91343333	-0.277269675
2010	39	-2.22	-14.44	-5.58	1.67E-05	135.2405321	280.1717709	36577	23.17948392	-0.224977547
2010	40	-1.67	-10.56	-4.11	0.08035	77.78833028	305.1930042	36716	23.16164196	-0.084850695
2010	41	-2.22	-8.89	-4.06	0.891358333	61.59693208	100.671982	36857	23.53126112	-0.081497685
2010	42	-2.78	-9.44	-4.61	0.002291667	139.1377205	79.73829902	36999	24.34986037	-0.037870371
2010	43	-1.11	-5.56	-2.33	3.33E-05	209.4065999	173.6486982	37143	24.97802424	0.019525
2010	44	1.11	-7.78	-1.33	0.000233333	211.6857332	258.4898934	37287	24.06269151	0.025363194
2010	45	-3.33	-7.78	-4.56	0.014183333	137.1988201	148.6192388	37433	23.73962663	0.06123426
2010	46	-1.11	-9.44	-3.4	0.297308333	119.729269	96.75205811	37581	23.51579451	0.04281713
2010	47	0.56	-9.44	-2.19	0.084291667	165.7281876	170.3563854	37729	23.29941905	0.057592129
2010	48	-1.11	-6.67	-2.64	0.011191667	161.4629869	193.5716091	37879	23.26255793	0.150322685
2010	49	0.56	-5	-0.97	0.007591667	215.9663021	149.1464964	38029	23.16225483	0.302247916
2010	50	2.78	0	2.01	0.000183333	320.3520665	211.7810478	38181	23.17983942	0.355609722
2010	51	4.44	-3.89	2.15	0	334.1611361	235.0397537	38334	23.35445231	0.19868125
2010	52	5	-3.89	2.56	0	409.1621616	181.5108083	38487	23.12168016	0.253071296
2010	53	7.22	-3.33	4.32	0.125525	253.520992	322.2404639	38642	23.37463819	0.242777314
2010	54	4.44	-2.22	2.61	0.041291667	75.61425035	108.3658428	38798	23.68367114	0.372121296
2010	55	3.33	-0.56	2.26	0	263.6064599	83.23187986	38954	24.32490798	0.512010416
2010	56	2.78	-2.22	1.4	0.043733333	207.1322165	165.2714862	39111	24.13886762	0.37173588
2010	57	0.56	-6.67	-1.43	0.315566667	120.0686571	177.032668	39269	24.24237961	0.236916203
2010	58	-2.22	-5.56	-3.14	0.068416667	119.7091058	106.3439235	39428	24.60433365	0.348967823
2010	59	1.67	-3.89	0.14	0.043183333	187.3356345	217.7382198	39587	24.37619437	0.483394675
2010	60	4.44	-1.11	2.92	0.008058333	233.5345711	203.0465043	39747	24.4024353	0.608025927
2010	61	3.89	0	2.82	0.000425	243.5892452	132.9842139	39907	24.31951529	0.591316898
2010	62	3.33	-0.56	2.26	0.048066667	207.0671659	146.9520848	40068	24.20944957	0.722790047
2010	63	4.44	-2.78	2.46	0	394.4714723	94.27703585	40230	23.95725408	0.793963193
2010	64	5	-2.78	2.86	0	426.5389723	356.7106448	40392	23.81971255	1.002290745
2010	65	7.22	-5	3.86	0	483.723969	344.2658454	40555	23.71599337	1.166994902
2010	66	9.44	-4.44	5.62	0	602.7230652	381.7354718	40718	23.58882373	1.905190038
2010	67	10.56	-1.11	7.35	0	646.133554	379.8051747	40882	23.58875873	2.701254867
2010	68	11.67	-0.56	8.31	0	594.5900011	379.0489844	41046	23.5019103	3.317930083
2010	69	15.56	1.11	11.58	0.000808333	679.1629471	374.5071022	41210	23.29466853	4.066266433
2010	70	15.56	2.22	11.89	0.002408333	541.3981871	215.9075385	41375	22.82730931	5.692212967
2010	71	18.89	3.89	14.76	0.818983333	178.3883097	349.2740113	41540	22.487206	6.418776167
2010	72	10	5	8.62	2.895616667	123.9284277	53.68278903	41705	22.57907794	5.990235883
2010	73	8.33	5	7.42	0.880633333	103.5372274	45.96763906	41870	22.45610128	5.646140983
2010	74	6.67	4.44	6.06	0.045566667	196.7819722	55.30230719	42036	22.2978331	5.535346283
2010	75	6.67	4.44	6.06	1.67E-05	528.4148953	65.53971406	42202	22.22689526	6.312006717
2010	76	15.56	-0.56	11.13	0	786.6147442	404.0987715	42368	22.20477957	6.221790283
2010	77	17.78	0	12.89	0	884.5385146	415.9749901	42534	22.38504931	6.329203717
2010	78	18.89	1.67	14.15	0	912.8883794	398.2905302	42701	22.239841	6.91437825
2010	79	20	6.11	16.18	0	1037.163672	397.0583001	42867	22.17654399	7.655270133
2010	80	21.11	6.67	17.14	0	1167.51575	369.8992704	43033	22.12846002	8.846329867
2010	81	22.78	7.78	18.65	0.3143	561.2853258	358.231863	43200	22.07529678	9.5929088
2010	82	18.33	7.78	15.43	0.246025	335.6198265	106.6032675	43366	22.06776872	8.540825
2010	83	8.33	2.78	6.81	0.000108333	570.5693522	42.07809285	43533	22.03161722	7.780382633
2010	84	15.56	2.78	12.04	0.200816667	517.5675446	434.0135895	43699	21.95932703	7.632457867
2010	85	18.33	-1.11	12.99	1.101366667	733.2761299	201.1173853	43865	22.54928775	7.175300467
2010	86	5	-5.56	2.1	0	443.5347271	405.0470398	44032	23.14243733	5.66445625
2010	87	8.89	-5.56	4.92	2.144625	172.9833566	410.8524767	44198	23.55635022	5.1613338
2010	88	7.22	2.78	6	0.182625	186.4774684	131.1245713	44363	23.55354175	6.515086117
2010	89	14.44	1.67	10.93	0.001841667	690.6611826	196.8807324	44529	23.45032287	6.37096065
2010	90	10	1.67	7.71	0.000325	707.0691914	234.6537165	44695	23.38381254	7.4080456
2010	91	20	5	15.88	0	1108.768058	449.0460856	44860	23.37711575	8.61501945
2010	92	26.67	6.67	21.17	0	1343.450028	449.3145549	45025	23.26793688	10.08159885
2010	93	28.33	10	23.29	0	1371.97667	408.2228769	45190	23.75985026	11.12394168
2010	94	25.56	12.22	21.89	0	1784.308152	387.9958502	45354	23.63785555	11.26383283
2010	95	21.11	7.22	17.29	0.001283333	1113.620212	413.6547745	45518	23.38136478	11.094076
2010	96	26.67	8.33	21.63	0.1036	1268.346143	361.9819489	45681	23.30600899	12.56240683
2010	97	30	15.56	26.03	0	2277.840818	398.3975791	45845	23.19562588	13.071631
2010	98	29.44	12.22	24.71	0.188058333	1355.85076	339.6688846	46007	23.15937483	12.91867083
2010	99	28.89	4.44	22.17	0.03315	1122.008326	335.8832337	46169	22.70907647	10.634214
2010	100	7.22	3.89	6.31	0.008375	562.5312808	161.3669684	46331	22.35889842	9.70663025
2010	101	16.67	5.56	13.61	0	923.1641868	496.4841155	46492	22.51623298	10.01521435
2010	102	21.11	2.78	16.07	0	1318.838169	395.4626291	46653	23.70849743	10.36474623
2010	103	18.89	4.44	14.92	0.001133333	845.7859205	469.1622087	46813	23.43556558	9.720175783
2010	104	13.33	0	9.67	0	506.9135009	201.196186	46972	23.19244372	9.382454883
2010	105	18.33	2.78	14.06	0	837.0168582	479.1855266	47131	22.93835897	10.10790603
2010	106	25.56	7.78	20.67	0.412966667	874.0810633	423.0629455	47289	22.69362501	11.46911333
2010	107	25.56	6.11	20.21	0.19925	825.0047669	290.6644957	47446	22.56413508	10.04997733
2010	108	7.22	1.67	5.69	0.023616667	312.1296568	156.2479958	47602	22.72336764	8.635825383
2010	109	9.44	1.67	7.31	0	517.9129054	183.8878468	47758	22.78991477	9.116297917
2010	110	17.22	2.22	13.1	0	745.8473127	513.6358119	47912	22.51472506	9.659733783
2010	111	18.33	5	14.67	0.06255	608.2405161	447.2655228	48066	22.05321661	10.02811573
2010	112	20	4.44	15.72	0.056466667	751.3825465	366.2504642	48219	21.83843654	10.1299379
2010	113	20	3.33	15.42	0	1116.214058	357.0333219	48370	23.06520181	10.42650595
2010	114	19.44	3.89	15.17	0.070741667	757.695633	526.553937	48521	22.9735395	9.822957
2010	115	16.67	6.11	13.76	1.24475	125.4044897	241.8833779	48671	22.8100442	9.73835595
2010	116	11.67	7.78	10.6	1.029241667	100.9510084	100.6038891	48819	22.84548067	9.851438883
2010	117	12.22	5.56	10.39	0.198733333	599.0647484	100.7922768	48966	22.66077397	9.65232455
2010	118	11.11	1.67	8.51	0	629.9726654	426.3192007	49112	22.29813364	8.843117583
2010	119	12.78	2.78	10.03	0	801.9290074	376.1847503	49257	22.06292231	9.58786875
2010	120	19.44	6.67	15.93	0	905.2578058	513.9550979	49401	21.79374906	11.13152448
2010	121	27.78	10	22.89	0	1358.744456	490.1456485	49543	21.4355202	12.79629167
2010	122	30.56	15.56	26.43	0.23245	594.7040993	427.5168616	49683	21.15846369	13.8604185
2010	123	23.89	17.78	22.21	1.59415	641.6816102	138.243527	49823	21.36954902	14.67517317
2010	124	25	12.78	21.64	0.37015	871.2859522	256.1317538	49960	21.02298838	13.82927083
2010	125	22.22	8.89	18.56	0	858.2302341	420.9465253	50096	20.57709995	13.44962917
2010	126	26.67	11.11	22.39	0.27015	1221.65997	541.2513033	50231	20.07356715	13.72862267
2010	127	21.11	6.11	16.99	0	743.1969638	532.2034894	50363	19.85296842	12.830563
2010	128	20.56	8.33	17.19	0.721991667	641.877035	427.982154	50495	19.74306776	12.707844
2010	129	16.11	2.78	12.44	0.037625	632.339722	329.2895985	50624	19.4194153	10.5355912
2010	130	8.33	2.22	6.65	0	538.1930523	212.3588799	50751	20.58820346	9.9008708
2010	131	15	1.67	11.33	1.692641667	284.1894484	578.0611851	50877	21.52422208	8.792662983
2010	132	9.44	3.33	7.76	1.605108333	95.03821326	81.65050421	51000	21.45524922	9.183681483
2010	133	16.11	6.67	13.51	0.000833333	325.1761622	119.4805726	51122	21.08927974	9.86635185
2010	134	14.44	7.78	12.61	0.162083333	322.4562471	196.4896149	51241	20.95590182	11.44850783
2010	135	27.22	11.11	22.79	0.132266667	1337.088583	321.9546399	51358	20.80370568	12.31841717
2010	136	21.11	10.56	18.21	0.002566667	900.2163436	501.807231	51473	20.49589932	12.3638995
2010	137	19.44	8.89	16.54	0.335833333	439.1544302	530.3261727	51586	20.26571539	11.7624615
2010	138	15.56	8.33	13.57	0.513241667	179.6434306	134.1421348	51697	20.2480755	11.04528517
2010	139	11.67	8.33	10.75	0.000191667	250.5843739	89.89085415	51805	19.94894831	11.14847183
2010	140	17.78	10	15.64	0	659.6935837	247.0336517	51910	19.56612934	12.4991945
2010	141	27.22	13.33	23.4	0	1003.374627	533.5905134	52014	19.15532483	13.42532817
2010	142	27.78	15.56	24.42	0.303733333	781.8861175	399.7088757	52114	18.74160907	13.93557183
2010	143	22.22	15	20.24	1.86885	266.716222	294.4634875	52212	19.02927078	14.43563183
2010	144	22.22	13.89	19.93	0.00325	399.917488	250.3630571	52308	18.72855822	14.68767917
2010	145	23.33	15	21.04	0.00005	644.1077855	281.3345431	52400	18.35121907	15.460898
2010	146	26.67	16.11	23.76	0	895.8815694	430.1857821	52490	17.92491473	16.12501333
2010	147	30	17.78	26.64	3.33E-05	1313.359499	536.3323725	52577	17.48002413	17.06771017
2010	148	30.56	18.89	27.35	0.036416667	664.1662989	471.5513708	52662	17.99489253	16.95996767
2010	149	26.11	17.78	23.82	0.000433333	684.3608582	284.298451	52743	17.71672147	16.9942495
2010	150	26.11	13.33	22.6	0	956.8020012	348.7412082	52821	17.22635894	16.84656517
2010	151	30	16.11	26.18	0.123666667	789.0704057	557.4055109	52896	16.65229577	17.062201
2010	152	30.56	17.78	27.04	0.306483333	503.5565497	395.0304807	52969	16.19984012	17.26933533
2010	153	26.11	14.44	22.9	0	795.9966503	252.3992684	53038	15.80794947	17.1632365
2010	154	28.33	16.11	24.97	0.000383333	918.3023758	522.0173597	53103	15.44914637	17.65288233
2010	155	27.78	18.89	25.33	0.001325	670.8221589	372.3626693	53166	15.13188429	17.8154805
2010	156	28.33	18.89	25.74	0.226383333	534.0558894	349.6398054	53225	14.88251615	18.02828667
2010	157	27.78	18.89	25.33	0.106141667	791.4485343	291.7263199	53281	14.65906666	17.88666383
2010	158	25.56	12.78	22.04	0.0003	1096.404058	339.0435336	53334	14.39134237	16.45915267
2010	159	21.11	10	18.06	0	920.4562131	402.6621626	53383	14.12201374	15.402011
2010	160	22.22	11.67	19.32	3.927258333	255.7260075	578.2079312	53429	15.45968645	14.35362217
2010	161	17.22	12.22	15.85	0.003291667	513.1863292	71.92554674	53471	18.94373945	15.3636005
2010	162	25.56	12.78	22.04	0	685.5874432	478.7247365	53510	18.0022728	15.7367575
2010	163	25.56	13.89	22.35	0.019616667	570.430018	463.2873511	53546	17.64280474	17.05977
2010	164	31.11	19.44	27.9	0.528716667	730.595471	469.7093181	53577	17.66824574	18.25282
2010	165	28.33	16.67	25.12	0.008216667	625.1153143	296.4736647	53606	18.35161887	17.960694
2010	166	25	18.33	23.17	0.003133333	529.8318543	214.2287593	53630	17.62660257	17.5981745
2010	167	23.33	17.78	21.81	0.119383333	485.7824635	253.6564445	53651	17.35694698	17.85777867
2010	168	28.33	17.22	25.28	0	1173.624179	423.6784972	53669	17.21483996	17.73842883
2010	169	23.33	11.67	20.12	0	676.6384707	433.4986224	53682	16.69329223	16.98668783
2010	170	27.22	13.89	23.56	0	778.92801	575.3926051	53693	16.1738617	17.60195883
2010	171	31.11	17.78	27.44	0.041833333	1104.615981	498.0759968	53699	15.86627698	18.483505
2010	172	28.89	16.11	25.38	0	1056.244733	414.4038132	53702	15.66120374	18.469874
2010	173	29.44	18.89	26.54	0.345633333	654.9866769	522.878153	53701	15.68070228	18.414363
2010	174	27.78	20.56	25.79	0.011108333	875.979023	289.6228772	53696	15.31558079	19.31296767
2010	175	31.67	20.56	28.61	0.035641667	1198.900125	488.4470968	53688	14.85407186	19.47840967
2010	176	28.33	16.67	25.12	0	1026.932597	382.0639785	53676	14.44124695	18.99715933
2010	177	27.22	17.22	24.47	0	950.2680028	488.5293052	53661	14.05601949	18.28036817
2010	178	30	19.44	27.1	1.03355	899.8804639	446.3459597	53641	13.72179995	19.30827503
2010	179	31.67	21.11	28.76	0.1209	968.1793801	457.6449158	53619	13.49670815	19.7894444
2010	180	26.67	19.44	24.68	0.017883333	1134.858296	225.8883536	53592	13.31179529	19.38931875
2010	181	25	8.89	20.57	0	1057.861714	487.0805128	53562	13.06139497	17.33210468
2010	182	22.22	10	18.86	0	983.406447	529.8833926	53529	12.81407289	16.28866745
2010	183	22.22	10	18.86	0	883.5957742	464.2850308	53491	12.62483111	15.96549992
2010	184	25	12.22	21.49	0	1060.72511	569.1823316	53451	12.47856182	16.36598365
2010	185	30	13.33	25.42	0	1367.643937	565.9587238	53407	12.36774357	17.21038662
2010	186	32.78	18.33	28.81	0	1530.310727	562.779848	53359	12.2714913	18.43653382
2010	187	34.44	20.56	30.62	0	1773.996979	468.2987814	53308	12.26899786	19.31952563
2010	188	33.89	21.11	30.38	0	1710.002764	484.5352057	53254	12.14616033	20.02090323
2010	189	33.89	21.11	30.38	0	1870.65705	490.7987087	53196	12.07315356	20.17848253
2010	190	34.44	22.22	31.08	2.081583333	1197.390857	474.8774295	53135	11.96510177	20.4236936
2010	191	32.78	18.33	28.81	1.728766667	1312.467067	385.9046938	53071	11.934537	20.20084825
2010	192	27.78	14.44	24.11	0	1133.416809	517.9947452	53004	11.86261061	19.30888973
2010	193	30	17.22	26.49	0.73635	682.3568476	560.8760245	52933	11.87342829	18.846274
2010	194	27.78	19.44	25.49	0.059183333	456.26382	339.4578116	52860	12.53735802	19.28224325
2010	195	25.56	19.44	23.88	1.139066667	524.0691574	202.8040449	52783	13.01361082	19.86386675
2010	196	28.33	18.33	25.58	0	848.8172994	307.204108	52703	13.03696722	20.51307767
2010	197	30.56	20	27.65	0.48655	485.2050045	490.0264953	52620	13.14258821	20.27419867
2010	198	29.44	18.89	26.54	0.000166667	831.2836514	316.7528688	52535	13.34750245	20.522058
2010	199	30	18.89	26.94	0.0028	1335.872475	484.3018809	52446	13.27445577	21.09294767
2010	200	31.67	22.22	29.07	0.00055	1172.862153	503.2371368	52355	13.04225785	20.96582317
2010	201	30.56	18.33	27.19	0.4471	546.8714812	449.6972159	52261	13.0838097	20.39788183
2010	202	29.44	18.89	26.54	0.416091667	750.04759	317.2687383	52164	12.96132457	20.79341983
2010	203	31.11	18.89	27.75	0.344708333	979.5500502	403.2833601	52065	12.89125179	20.67530133
2010	204	29.44	20	26.85	0.001166667	1130.484838	503.6130915	51963	16.52457752	21.33849767
2010	205	33.89	22.22	30.68	0.002166667	1667.306151	426.7384894	51858	16.41951924	22.2691565
2010	206	32.78	22.22	29.88	0.206216667	1058.341802	462.4431335	51751	16.2321553	21.73174067
2010	207	27.22	17.22	24.47	0	1104.311093	271.0649604	51642	15.92954878	20.38504533
2010	208	27.78	16.11	24.57	0	989.1303315	544.8168611	51530	15.50772485	19.73962867
2010	209	29.44	18.33	26.39	0	1062.703218	512.7028676	51417	15.09486816	20.15907417
2010	210	30.56	20	27.65	0.312433333	1242.692256	480.2244284	51300	14.76409334	20.830581
2010	211	28.89	14.44	24.92	0	1191.594979	442.2194575	51182	14.47128286	19.49659167
2010	212	25.56	13.33	22.19	0	1046.683227	472.8504587	51062	14.16875294	18.81577583
2010	213	26.67	15.56	23.61	0.0018	1014.72537	448.0155039	50939	13.84843131	19.33938283
2010	214	27.78	18.33	25.18	0	799.9971262	387.8478259	50815	13.53773836	19.10762783
2010	215	25.56	19.44	23.88	0.12175	482.7329491	305.7743929	50688	13.22613505	19.502351
2010	216	28.33	21.67	26.5	0.1883	643.2302471	239.2125035	50560	12.96137255	20.543487
2010	217	32.22	20.56	29.01	0.015533333	1043.26288	342.4565683	50430	12.66432749	20.74403933
2010	218	28.33	18.33	25.58	0.19875	980.2004728	351.3403829	50298	12.37889137	20.11432783
2010	219	25.56	15	22.65	0	950.096899	373.47638	50164	12.05264343	19.15767588
2010	220	26.67	13.89	23.15	0	1108.238357	436.6718017	50029	11.1063118	18.72209362
2010	221	29.44	15	25.47	0	1455.063619	480.3732331	49892	10.96220608	19.1443672
2010	222	32.22	17.22	28.1	0	1413.836914	481.7902411	49754	10.78548874	20.39187183
2010	223	32.22	20	28.86	0	1543.52506	365.0137341	49614	10.66545242	20.70883933
2010	224	31.67	20	28.46	1.727325	407.2173777	475.3433509	49472	10.54568703	20.33607783
2010	225	23.33	16.67	21.5	0.066308333	456.9723593	133.2340202	49330	10.70245531	19.4029686
2010	226	21.67	17.22	20.44	0	729.8387913	159.8482121	49186	10.72871572	19.01914017
2010	227	24.44	19.44	23.07	0.923683333	306.2990266	195.6661422	49040	10.73976724	19.1863359
2010	228	27.22	19.44	25.08	0.000133333	894.7940435	205.4399452	48894	10.85874374	20.3943882
2010	229	30	16.67	26.33	0	1297.342299	416.624212	48746	10.85167825	19.55582327
2010	230	27.78	17.78	25.03	0	866.6201794	471.0366753	48597	11.60138661	19.01600127
2010	231	25.56	14.44	22.5	0	779.0633917	249.7916437	48446	11.88157681	18.78472713
2010	232	30	16.11	26.18	0	1085.611031	431.8917069	48295	11.50461238	19.0944217
2010	233	29.44	16.67	25.93	0.0001	1022.523487	424.3780417	48143	11.36066855	19.338694
2010	234	28.33	17.22	25.28	5.16885	519.1962818	281.4364817	47990	12.75421505	20.0564575
2010	235	26.11	17.22	23.67	0.204908333	405.6654593	233.0387072	47836	12.83918513	19.13735567
2010	236	20.56	15	19.03	0.027841667	371.05711	141.6741053	47681	12.68825252	18.59942135
2010	237	20.56	15	19.03	0.044958333	441.8330614	157.0114296	47525	12.54422896	18.5540616
2010	238	25	16.67	22.71	0.000158333	877.2703059	253.5850725	47368	12.43283921	18.49079867
2010	239	24.44	10.56	20.62	0	748.6583543	412.7398895	47210	11.99308995	17.46827048
2010	240	25	10.56	21.03	0	779.5339742	497.9926279	47052	11.76277013	17.00308023
2010	241	27.22	12.22	23.1	0	791.4642562	483.5754376	46893	12.51151426	17.81763608
2010	242	30.56	14.44	26.13	0	1024.022671	469.2487595	46734	12.92905543	18.23083208
2010	243	30.56	16.67	26.74	0	1047.837738	459.1807852	46573	15.1567185	18.858482
2010	244	32.22	18.33	28.4	0	1262.067289	437.1602668	46413	16.74235414	19.176745
2010	245	32.22	18.33	28.4	0	1320.47912	442.5985652	46251	16.48021567	19.42058567
2010	246	32.78	18.33	28.81	0.00065	1314.304528	448.9782309	46089	16.27508848	19.24038933
2010	247	31.67	15	27.08	0	1431.1609	357.8712061	45927	15.95479698	17.8378315
2010	248	19.44	10.56	17	0	721.8798257	235.1366999	45764	15.88825946	16.02503833
2010	249	20	7.78	16.64	0	679.7199161	369.3065344	45600	15.87923244	15.42989667
2010	250	25.56	8.89	20.97	0	1107.261922	403.5506423	45437	15.90755549	16.72624633
2010	251	31.67	15	27.08	0	1890.012094	435.2338684	45272	15.82041667	17.63306667
2010	252	23.89	13.33	20.99	0.000183333	1038.530398	444.1881801	45108	15.6649777	16.47345883
2010	253	19.44	12.78	17.61	6.67E-05	777.2339625	202.0986925	44943	15.54289215	16.04587
2010	254	20	8.33	16.79	0	748.6275351	255.0169038	44778	15.4799978	15.404432
2010	255	22.78	10	19.26	0.660916667	216.9822357	389.201911	44613	15.5555849	15.72037367
2010	256	20.56	9.44	17.5	0.0016	619.4254481	121.9663666	44447	15.52660896	15.831157
2010	257	25	11.11	21.18	0	1061.000073	391.0201188	44281	15.44442493	15.475162
2010	258	22.78	11.11	19.57	0	990.0210669	434.388136	44115	15.45741651	15.29362683
2010	259	23.89	10.56	20.22	2.125225	372.4080067	433.4080054	43949	15.72401278	14.41124117
2010	260	17.78	11.67	16.1	0.484125	375.0209321	72.35366046	43783	16.82543736	15.3171325
2010	261	17.78	8.89	15.33	0.005	375.7720653	204.594197	43617	16.49464916	15.01316017
2010	262	22.78	8.89	18.96	0.0195	480.5608047	386.7442934	43450	16.29275839	15.55488183
2010	263	26.11	11.67	22.14	3.33E-05	1081.792827	284.7857538	43284	15.94155304	15.49155033
2010	264	20.56	7.22	16.89	0	643.9765751	418.6152733	43117	15.71900825	14.45450183
2010	265	25	7.22	20.11	0.01325	635.0261859	409.4530853	42951	15.54987036	15.485618
2010	266	30.56	15	26.28	0.00045	782.4224953	316.2269293	42784	15.41224609	16.52706667
2010	267	28.89	16.11	25.38	0	1217.707535	295.8675455	42618	15.33214616	17.43428883
2010	268	31.11	17.22	27.29	0	1751.510632	339.9433085	42452	15.21860128	17.64784318
2010	269	25.56	10	21.28	0.000125	831.7510312	394.3810059	42286	15.14451741	16.39775938
2010	270	18.33	10	16.04	1.195225	164.7892971	223.6048113	42120	16.59738284	16.3030759
2010	271	20	13.33	18.17	1.661683333	426.1130836	82.25823649	41954	17.25754229	17.17121217
2010	272	22.78	12.22	19.88	0	487.310112	248.6223824	41788	17.29096665	15.9976159
2010	273	18.33	12.22	16.65	6.583841667	126.6738748	205.0672454	41623	17.41345266	15.71155092
2010	274	17.78	12.22	16.25	0.844658333	547.663525	14.48368355	41458	17.64466776	15.79209152
2010	275	18.33	5.56	14.82	0	426.5965178	222.5886087	41293	17.51765147	14.53689807
2010	276	16.67	5.56	13.61	0	575.8699083	377.5308833	41129	17.32436894	14.00777527
2010	277	16.67	6.11	13.76	0.53855	278.6348763	275.3888016	40964	17.28957392	13.16021602
2010	278	9.44	6.67	8.68	0.212733333	133.5831472	82.3797011	40801	18.22406484	12.22036588
2010	279	11.11	7.78	10.19	0.127425	190.0250428	58.35993609	40637	18.49707018	11.97951245
2010	280	12.22	8.33	11.15	0.039575	463.5628944	69.02302283	40474	18.60656616	12.52746153
2010	281	18.89	7.22	15.68	0	655.8766755	275.2010283	40312	18.57886518	12.59559202
2010	282	22.22	7.78	18.25	0	779.6958025	352.2832238	40150	18.4877733	12.95938407
2010	283	22.78	6.67	18.35	0	692.8307783	337.6306982	39989	18.3241896	13.22031737
2010	284	25	6.67	19.96	0.066072917	741.3670975	294.7573635	39828	18.28195585	14.03666288
2010	285	24.44	12.78	21.24	0.1991125	521.5284483	220.665566	39667	18.41367206	14.40265307
2010	286	20.56	3.33	15.82	0.09274375	566.6405233	275.9822722	39508	18.36576001	13.40818554
2010	287	15.56	3.89	12.35	0.14305	231.1095259	348.963999	39349	18.295984	12.48151524
2010	288	12.22	6.11	10.54	0.1139375	468.0303829	62.01627617	39191	18.34921761	12.24523832
2010	289	13.89	6.11	11.75	0.114870833	761.6832293	241.2350731	39033	18.41744725	12.18860042
2010	290	16.11	6.67	13.51	0.122252083	685.4528063	330.424653	38876	18.84676983	12.04300834
2010	291	19.44	5	15.47	0.162904167	555.0569026	309.1082208	38720	19.16396122	11.7922072
2010	292	11.67	5.56	9.99	0.1466625	282.4429187	96.79628406	38565	19.18587469	11.53524094
2010	293	13.33	2.78	10.43	0.1443875	414.7898982	212.9848356	38411	19.20687382	10.93046638
2010	294	15.56	3.33	12.19	0.1517625	699.3025205	268.4389374	38258	19.23035844	10.7302778
2010	295	13.33	3.33	10.58	0.159147917	490.3280585	217.3233026	38106	19.63063355	10.40743406
2010	296	10.56	3.33	8.57	0.166525	557.1833776	153.452164	37955	20.20227314	10.2965939
2010	297	21.67	8.89	18.15	0.1739	1012.377238	229.9835031	37804	20.29306825	11.25250118
2010	298	22.78	10	19.26	0.189858333	789.3058313	225.2922534	37655	20.32738014	12.05917473
2010	299	20.56	10.56	17.81	0.18865625	358.6443465	122.5995561	37507	20.93902461	12.63871772
2010	300	20.56	11.11	17.96	0.5158375	632.6654051	158.8157503	37361	21.88356362	13.3486386
2010	301	21.11	12.22	18.67	0.212004167	1297.96509	253.6408282	37215	23.84846328	12.82423333
2010	302	17.78	6.11	14.57	0.217233333	689.7388036	269.9889373	37071	23.77878534	11.80977778
2010	303	9.44	1.11	7.15	0.2224625	444.2267866	116.982945	36928	21.66900245	10.70099482
2010	304	14.44	1.67	10.93	0.22984375	808.029403	196.4067746	36787	21.93683033	10.50486597
2010	305	10.56	0	7.65	0.232933333	472.1719969	219.1811908	36647	23.13847408	9.941037032
2010	306	8.89	-2.78	5.68	0.240304167	319.3909071	276.76686	36509	22.91400534	8.970407247
2010	307	8.89	-3.33	5.53	0.247679167	312.2789986	274.121344	36372	22.74373671	8.417784896
2010	308	11.67	-1.67	8	0.604264583	83.69635213	261.5671541	36237	22.82592054	8.722553301
2010	309	7.22	4.44	6.46	0.2888375	175.9257212	40.32848048	36103	22.8410022	8.858722728
2010	310	7.78	0	5.64	0.269820833	172.1142941	74.56923596	35971	22.72272439	8.423793521
2010	311	6.67	-1.67	4.38	0.277195833	210.7492259	108.857681	35841	22.62131145	7.886447289
2010	312	7.22	-1.67	4.78	0.284570833	361.6596132	135.1719684	35713	22.56119935	7.829187946
2010	313	12.78	1.67	9.72	0.291952083	368.5225518	246.9739142	35586	22.4846269	8.149008484
2010	314	13.33	2.78	10.43	0.2993375	419.5066571	227.6088377	35462	22.40245179	8.619248341
2010	315	15.56	-0.56	11.13	0.25615	492.2783269	242.0429395	35339	22.31755652	8.298659873
2010	316	14.44	-1.67	10.01	0	481.0964535	242.9716132	35219	22.40595768	7.773909928
2010	317	15.56	-2.78	10.51	0	559.4893169	247.9775753	35100	22.70749814	7.381788416
2010	318	16.11	-2.22	11.07	0	579.0470585	243.7243131	34984	22.62351081	7.210595822
2010	319	16.11	1.11	11.99	0	372.2928587	178.7967715	34870	22.49872231	7.926034503
2010	320	11.11	5.56	9.58	0.537322917	152.0840852	147.0836119	34759	22.45484933	8.220106238
2010	321	13.33	6.11	11.35	0.203147917	320.9556925	32.29390773	34649	22.30917822	8.635489766
2010	322	10	4.44	8.47	0	232.0091213	48.55353795	34542	22.25379481	8.393011816
2010	323	7.22	0.56	5.39	0.0064375	269.3813889	45.53677963	34438	21.98501396	7.490818883
2010	324	8.33	1.67	6.5	0	277.0268488	163.6494681	34336	21.70367449	6.770300967
2010	325	9.44	0	6.85	0	207.7341228	77.13229119	34237	22.60085864	6.267767417
2010	326	10	0.56	7.4	0	298.3917824	182.2686985	34140	23.64977073	6.275037567
2010	327	16.11	7.78	13.82	0	539.9005792	166.123214	34046	23.56152404	5.522082883
2010	328	16.67	1.11	12.39	0	692.4428835	64.43864637	33954	23.67601613	5.367075917
2010	329	6.11	1.11	4.74	0.507597917	181.2210866	166.9189157	33866	23.58523292	4.692047733
2010	330	6.67	1.67	5.29	0.2343625	222.6173954	21.86397235	33780	23.64919192	4.507303117
2010	331	5.56	-1.67	3.57	0.0618	302.8723865	164.8813962	33697	23.7362444	4.25115525
2010	332	1.67	-1.11	0.9	0.027897917	235.2704458	52.06575198	33618	23.3301273	4.071105683
2010	333	5.56	-4.44	2.81	0	198.9130146	199.5241	33541	23.24562208	3.63967765
2010	334	7.22	-4.44	4.01	0.559314583	144.0269041	188.4466582	33467	23.30334315	3.76357255
2010	335	15.56	6.11	12.96	0.634014583	217.6643005	24.48864946	33397	23.21020602	4.9113523
2010	336	8.89	-3.33	5.53	0	225.6602918	41.12771654	33329	23.23087884	4.656933883
2010	337	0	-3.89	-1.07	0	141.7869422	81.47248791	33265	23.31314786	3.979707083
2010	338	0.56	-3.33	-0.51	0	141.1717228	73.39309345	33204	21.11735729	3.623346433
2010	339	1.11	-5	-0.57	0	208.3396032	94.01776576	33146	21.02556428	3.401642
2010	340	0	-4.44	-1.22	0	185.6257966	125.5239063	33092	21.02540186	2.840411183
2010	341	-1.67	-5.56	-2.74	0	148.6670345	78.12058299	33041	20.93898579	2.220637133
2010	342	-2.22	-6.67	-3.44	0	170.1421997	75.68547848	32993	20.80851979	1.912908867
2010	343	-2.22	-7.78	-3.75	0	169.1102716	97.53850135	32949	20.8752363	1.610951267
2010	344	-1.11	-7.78	-2.94	0.8478	92.37163869	192.1617934	32909	21.33692544	1.4020664
2010	345	-1.11	-6.11	-2.49	0	125.3133763	46.94489315	32872	21.34958569	1.261899918
2010	346	3.33	-6.67	0.58	6.78475	53.99989583	147.5847706	32838	21.45004076	1.35168025
2010	347	6.67	-5.56	3.31	0.14025	286.7707843	29.70686785	32808	21.25882928	1.31521535
2010	348	-2.78	-10.56	-4.92	0.25175	157.1837901	127.6626837	32782	21.263215	1.07571605
2010	349	-6.11	-10	-7.18	0.0091	133.9123063	90.47369097	32759	21.24228966	0.588993583
2010	350	-4.44	-10	-5.97	0.00675	116.3516088	98.04036717	32740	21.16076727	0.378364073
2010	351	-3.89	-10	-5.57	0	127.3264968	91.70446012	32724	21.03714666	0.236710285
2010	352	-1.11	-6.67	-2.64	0	177.9268931	100.8796592	32712	21.04765131	0.340416425
2010	353	-0.56	-10.56	-3.31	0	125.3856509	119.5600432	32704	21.22827465	0.26541224
2010	354	-1.67	-11.11	-4.26	0.0354	122.916714	137.2496242	32699	21.09509955	0.289377985
2010	355	-1.67	-4.44	-2.43	0.0081	206.3356866	47.185274	32698	21.05901365	0.294307772
2010	356	1.67	-5	-0.17	0	258.9447398	179.9217191	32701	20.88832346	0.455309307
2010	357	2.78	-3.89	0.94	0.0417	253.2793513	106.542494	32707	20.70821046	0.623204483
2010	358	1.11	-5	-0.57	0.0011	228.4464871	100.7030434	32717	21.33995982	0.521636233
2010	359	0.56	-5	-0.97	0.0005	180.6076639	163.2187458	32731	21.32792986	0.517617083
2010	360	-1.11	-6.11	-2.49	0.0301	171.8522103	65.500803	32749	21.35030112	0.503288533
2010	361	-2.78	-8.89	-4.46	0	194.8111694	64.84128543	32770	21.31730293	0.45909635
2010	362	-2.22	-8.89	-4.06	0.0014	193.5319113	181.8635222	32794	21.02073072	0.625214433
2010	363	1.11	-6.11	-0.88	0	209.7445961	147.654444	32822	20.97901192	0.58925275
2010	364	4.44	-7.22	1.24	0.0145	149.7636122	164.0344802	32854	20.82162914	0.549122383
2010	365	3.33	-7.22	0.43	0	147.0148056	86.25133391	32889	20.67101579	0.429551947
