"Shalehills,"	2012	:	input	for	MTCLIM	v4.3				
MTCLIM	v4.3	OUTPUT	FILE	:	Mon	Jan	16	16:32:50	2012	
	yday	Tmax	Tmin	Tday	prcp	VPD	srad	daylen	SoilW	SoilT
		(degC)	(degC)	(degC)	(cm)	(Pa)	(Wm-2)	(s)	(%)	(deg C)
2008	1	4.44	-2.78	2.46	0.945	162.1754386	107.3576895	32928	21.48949074	1.98562999
2008	2	3.89	-5.56	1.29	0.02	187.1368421	242.3626217	32971	21.49145833	1.607185458
2008	3	-3.33	-11.11	-5.47	0	101.5438596	153.795681	33017	21.45696759	1.3010022
2008	4	-4.44	-10.56	-6.13	0	79.34736842	210.6844795	33066	21.30865741	0.892287663
2008	5	3.33	-9.44	-0.18	0	213.3263158	184.7731816	33119	21.21236111	0.270235081
2008	6	5.56	-0.56	3.88	0.09	153.9578947	216.999156	33175	21.27314815	0.271250161
2008	7	7.78	5	7.01	0.035	91.50175439	201.3661912	33234	21.44615741	1.212635815
2008	8	18.89	6.11	15.38	0.025	564.2736842	215.6980118	33296	21.48023148	3.084797986
2008	9	19.44	8.33	16.39	0.06	537.6280702	150.879084	33362	21.45861111	5.012588925
2008	10	11.67	-0.56	8.31	0	356.7017544	204.7227424	33431	21.39727273	4.952372752
2008	11	7.78	-0.56	5.49	2.36	221.4175439	101.7295765	33503	22.54208333	4.276718303
2008	12	10.56	2.78	8.42	0	250.8	220.641115	33579	22.02738426	3.770016462
2008	13	6.11	-2.22	3.82	0	199.2421053	135.333987	33657	21.67803241	3.74169895
2008	14	3.89	-2.22	2.21	0.12	138.4210526	111.5724702	33738	21.49481481	3.131347552
2008	15	2.78	-2.78	1.25	0	119.7754386	163.3214476	33822	21.371875	2.79769908
2008	16	-1.11	-2.78	-1.57	0	32.70175439	175.9470937	33909	21.28587963	2.654006957
2008	17	0	-3.33	-0.92	0.57	65.66315789	56.70431483	33999	21.18296296	2.149081294
2008	18	2.22	-2.22	1	0.33	96.6877193	269.1626188	34092	21.11175926	2.08925867
2008	19	2.78	-6.67	0.18	0	173.9508772	105.2589581	34187	21.098125	1.846934865
2008	20	-1.11	-12.22	-4.17	0	146.877193	205.0519469	34285	21.06296296	1.792562466
2008	21	-10	-13.89	-11.07	0	37.60701754	306.8234165	34386	21.79792541	1.344159896
2008	22	-5	-13.89	-7.44	0	98.44210526	78.45701528	34489	21.60078704	0.884443809
2008	23	2.78	-6.11	0.33	0	167.4526316	314.5387484	34595	21.4443287	0.295707785
2008	24	-2.78	-7.78	-4.15	0	76.32280702	179.3039219	34703	21.30884259	0.21810746
2008	25	-2.22	-10	-4.36	0	109.6210526	321.8284598	34814	21.19293981	0.171631818
2008	26	-3.89	-10	-5.57	0.04	82.45614035	144.0329554	34926	21.09273148	0.195194815
2008	27	-2.78	-8.33	-4.31	0	82.82807018	171.1772159	35042	21.0287037	0.486059027
2008	28	-0.56	-5	-1.78	0	80.60350877	214.1984129	35159	21.25090278	0.073528472
2008	29	2.22	-2.22	1	0.4	96.6877193	60.02176994	35278	21.39657407	0.1692792
2008	30	5.56	-1.11	3.72	1.5	164.3087719	331.9026836	35400	21.40518519	0.202406437
2008	31	0.56	-8.89	-2.04	0	149.9578947	310.5629592	35523	22.42706019	0.265287212
2008	32	1.11	-7.78	-1.33	2.715	149.9017544	46.30497349	35649	22.17990741	0.369245269
2008	33	2.78	-2.22	1.4	0.005	110.245614	73.32927102	35776	21.726875	0.386209188
2008	34	1.11	-5.56	-0.72	0	123.1789474	260.4022003	35905	21.4412963	0.652532606
2008	35	6.11	-5	3.06	0.02	238.077193	38.36863137	36036	21.2831713	0.609426353
2008	36	5	0.56	3.78	1.02	115.4596491	80.53543089	36169	21.19724537	0.578380984
2008	37	13.33	3.33	10.58	0.4	351.2280702	78.46806049	36303	21.13960648	0.110542851
2008	38	16.67	1.67	12.54	1.01	536.0421053	45.74489572	36440	21.26013889	0.488986987
2008	39	3.33	-1.11	2.11	0.06	103.8526316	123.2830467	36577	21.6375	1.73463888
2008	40	2.22	-2.22	1	0.78	96.6877193	138.0326833	36716	21.94969907	1.185453629
2008	41	4.44	-1.67	2.76	0.21	143.4385965	181.0377947	36857	21.83502315	0.704218438
2008	42	-1.11	-16.67	-5.39	0	170.5473684	361.1028676	36999	21.58965278	0.45277809
2008	43	-8.89	-16.67	-11.03	1.91	68.41403509	67.61667071	37143	21.385	0.308974305
2008	44	-3.33	-11.67	-5.63	0.57	106.2385965	88.37750422	37287	21.28481481	0.085021001
2008	45	0.56	-7.78	-1.74	0	138.5403509	386.4039751	37433	21.70886574	-0.142639665
2008	46	2.22	-7.78	-0.53	0	173.5438596	48.00670552	37581	23.15321759	-0.131321892
2008	47	2.78	-11.11	-1.04	0	213.5157895	360.9479711	37729	22.92185185	-0.060985867
2008	48	2.22	-10.56	-1.29	0.23	197.9649123	113.6486708	37879	22.09824074	0.361980076
2008	49	8.89	-0.56	6.29	0.44	257.7403509	149.1559073	38029	22.21229167	0.394781893
2008	50	8.33	-4.44	4.82	0	295.9298246	268.2594484	38181	22.92011574	0.657314366
2008	51	-1.11	-10	-3.56	0	128.9964912	278.4670527	38334	22.10608796	0.610389516
2008	52	-3.89	-12.78	-6.33	0	106.4491228	408.2062515	38487	21.76159722	0.357798417
2008	53	-2.22	-12.78	-5.13	1.05	132.2526316	81.46348533	38642	21.60048611	0.164884307
2008	54	-2.78	-5.56	-3.54	0.08	46.58245614	206.2048044	38798	21.49416667	0.305468332
2008	55	1.67	-8.89	-1.24	0	172.5333333	423.5156852	38954	21.40085648	0.376742508
2008	56	5	-8.89	1.18	0	247.7824561	333.055432	39111	21.34333333	0.253918849
2008	57	2.78	-5	0.64	0.79	153.2701754	48.759836	39269	21.50381944	0.3942552
2008	58	1.67	-3.33	0.29	0.01	102.5754386	224.413843	39428	21.51060185	0.219734508
2008	59	-2.22	-11.67	-4.82	0	124.0421053	367.6338697	39587	21.43414352	0.061989478
2008	60	1.67	-12.22	-2.15	1.565	197.9789474	241.4387501	39747	21.368125	-0.133515002
2008	61	1.67	-5.56	-0.32	0	135.3192982	267.2369008	39907	22.34085648	-0.113632266
2008	62	4.44	-5.56	1.69	0	200.9473684	350.9771139	40068	22.33810945	-0.025818963
2008	63	15.56	1.67	11.74	2.165	483.3684211	414.2868009	40230	22.04930556	0.29539159
2008	64	7.78	1.67	6.1	3.805	176.9894737	20.58868093	40392	21.88696677	0.217023958
2008	65	4.44	-2.78	2.46	0	162.1754386	93.01013439	40555	21.89434634	0.455785487
2008	66	7.78	-2.78	4.88	1.01	257.2491228	421.6082568	40718	21.81102587	1.20440219
2008	67	7.22	-1.11	4.93	2.03	213.8035088	111.9551392	40882	21.67168649	1.211442515
2008	68	3.33	-7.22	0.43	0	192.8140351	38.96711007	41046	21.59518784	1.713988617
2008	69	0	-6.67	-1.83	0	114.4140351	427.5723125	41210	21.50020396	1.472068237
2008	70	6.11	-3.89	3.36	0	223.8807018	307.5047976	41375	21.7035788	1.460636767
2008	71	6.11	1.11	4.74	0.01	136.2807018	266.7002889	41540	21.64562918	1.68601767
2008	72	4.44	-3.33	2.31	0	170.8210526	151.646709	41705	21.55450726	1.796911417
2008	73	13.33	-3.33	8.75	0.015	456.6035088	411.4743253	41870	21.48977873	2.226991283
2008	74	15	3.89	11.94	0.335	414.0701754	323.0455086	42036	21.4630278	2.814563958
2008	75	10	1.11	7.56	0	265.5368421	247.5309227	42202	21.45892327	3.845345237
2008	76	5.56	-3.89	2.96	0	208.5403509	163.6050793	42368	21.44033333	4.12131104
2008	77	7.78	-3.89	4.57	0.1	272.2807018	462.9329948	42534	21.89645833	3.718096093
2008	78	5.56	2.22	4.64	1.52	93.68421053	53.51101848	42701	22.28930556	3.481184735
2008	79	12.78	1.67	9.72	0.21	362.0140351	76.81797187	42867	22.07743056	4.023746465
2008	80	3.89	-2.78	2.06	0	147.677193	336.8751888	43033	21.87979167	4.278271897
2008	81	6.11	-2.78	3.67	1.19	207.922807	468.9779398	43200	21.73178241	4.021189435
2008	82	5.56	-6.11	2.35	0	235.8736842	285.277683	43366	21.64766204	3.507170728
2008	83	6.11	-5.56	2.9	0	244.554386	510.7787885	43533	21.56895833	3.147618268
2008	84	5.56	-4.44	2.81	0	216	376.0483535	43699	21.69400463	2.584041985
2008	85	9.44	-3.89	5.78	0	324.4350877	479.0154337	43865	22.40469907	2.91063536
2008	86	12.22	1.67	9.32	0.125	339.4175439	323.6223883	44032	22.23423611	4.120339087
2008	87	6.67	2.22	5.44	0.615	128.1684211	57.97117517	44198	22.09881944	4.161830667
2008	88	7.22	-2.78	4.47	0	240.3929825	70.15533215	44363	21.92657407	4.691102293
2008	89	7.22	-4.44	4.01	0	262.7508772	531.2154326	44529	21.78298611	4.07767142
2008	90	10	-4.44	6.03	0	348.8912281	497.9753216	44695	21.67805556	4.031716132
2008	91	13.33	4.44	10.89	0.155	325.3473684	225.2769728	44860	21.61011574	4.7298252
2008	92	21.11	1.11	15.61	0.005	779.5157895	172.8890394	45025	21.57571096	6.243084637
2008	93	8.33	-2.78	5.28	0	274.5263158	466.8634875	45190	22.65962963	6.069643875
2008	94	9.44	-2.22	6.24	0.9	302.6736842	317.4336773	45354	22.74506944	5.313235883
2008	95	11.67	3.33	9.38	0.19	281.5789474	112.3247726	45518	22.25185185	5.493004633
2008	96	12.22	4.44	10.08	0	277.5157895	277.5338981	45681	22.03847222	6.196472683
2008	97	15	4.44	12.1	0	401.4596491	405.2141564	45845	21.90851852	6.580615733
2008	98	8.33	5.56	7.57	0	94.65263158	126.1629535	46007	21.79386574	6.5787051
2008	99	14.44	6.11	12.15	0	332.6807018	261.7510234	46169	22.21143519	7.036100467
2008	100	16.11	6.11	13.36	0	414.5754386	256.6507954	46331	22.82449074	7.830930333
2008	101	20.56	6.67	16.74	0.74	649.7052632	479.4604878	46492	23.18872685	8.774187267
2008	102	20	11.67	17.71	0.19	459.0105263	143.7465115	46653	22.51930556	9.707549483
2008	103	18.33	3.89	14.36	0.225	581.7052632	457.5626642	46813	22.1287037	10.40617728
2008	104	8.33	0.56	6.19	0.015	218.6315789	169.5090905	46972	21.9420979	8.9754287
2008	105	10.56	-2.22	7.04	0	340.6947368	401.2751692	47131	21.86083333	7.85522545
2008	106	15	0	10.88	0	484.5333333	561.5878957	47289	21.97166667	7.511978233
2008	107	20	2.22	15.11	0	701.6982456	552.2627197	47446	22.93743056	7.946122683
2008	108	26.11	7.22	20.92	0	1022.021053	554.4629847	47602	22.5306713	8.8155773
2008	109	28.33	10.56	23.44	0	1130.484211	537.8415763	47758	22.28768519	10.29534077
2008	110	27.22	12.22	23.1	3.12	984.1192982	416.5839038	47912	22.11907407	11.3890745
2008	111	15.56	12.78	14.79	0.24	144.8140351	114.7453709	48066	22.02837963	11.5413375
2008	112	21.11	11.67	18.51	0	532.8070175	275.9571123	48219	22.43719907	11.70688788
2008	113	22.22	10	18.86	0	666.6666667	413.340583	48370	22.69224537	12.00612865
2008	114	23.89	10.56	20.22	0	768.9403509	420.1529441	48521	22.40719907	12.0702458
2008	115	22.22	11.11	19.17	0	629.8245614	519.813544	48671	23.31335648	12.2995505
2008	116	25	11.11	21.18	2.11	836.3719298	386.4334788	48819	22.7073913	12.23152833
2008	117	27.22	10.56	22.64	0.43	1034.203509	392.209431	48966	22.3555787	13.41836817
2008	118	19.44	7.22	16.08	2.13	568.5824561	410.8230982	49112	22.18006944	13.50048467
2008	119	11.11	5	9.43	0	217.0666667	85.5561443	49257	22.71458333	11.37513248
2008	120	13.89	2.78	10.83	0	387.2912281	439.6441772	49401	22.82685185	10.86729995
2008	121	12.22	3.33	9.78	0	304.245614	404.569364	49543	22.75789352	9.752937033
2008	122	15	3.89	11.94	0	414.0701754	256.0311173	49683	22.59643519	9.2384638
2008	123	23.33	9.44	19.51	0.66	761.6350877	312.3472894	49823	22.70645833	10.52405147
2008	124	19.44	10	16.85	0.82	484.7017544	286.4218775	49960	22.85555556	12.1339625
2008	125	16.67	2.78	12.85	0	516.7719298	382.8252355	50096	22.71256944	11.81545783
2008	126	20.56	5.56	16.43	0	674.7789474	539.717107	50231	22.37291667	11.38136205
2008	127	22.78	8.33	18.81	0	752.9473684	415.900959	50363	22.12104167	11.7097435
2008	128	26.11	12.78	22.44	0.21	870.1122807	487.7954253	50495	21.91599537	12.30688567
2008	129	21.11	6.67	17.14	0.99	684.2807018	207.1066688	50624	21.72974537	13.34712938
2008	130	12.22	7.78	11	0	179.5649123	103.0653977	50751	21.55909722	12.22579976
2008	131	18.33	6.67	15.12	0.05	518.9263158	380.0835348	50877	21.36300926	11.66244284
2008	132	16.11	1.11	11.99	2.35	518.3789474	223.787451	51000	21.14555556	10.80254022
2008	133	10	2.22	7.86	0	242.4	136.5087242	51122	20.89673611	9.519620525
2008	134	22.22	7.22	18.1	0.015	743.0105263	573.336625	51241	20.7080787	10.27582963
2008	135	21.67	10	18.46	0.115	628.645614	286.9728961	51358	20.488125	11.08212859
2008	136	22.78	8.89	18.96	1.31	738.0280702	412.6879141	51473	20.18030093	12.17108912
2008	137	11.11	5.56	9.58	0.02	201.5017544	64.68117319	51586	19.88564815	11.44878784
2008	138	18.89	6.67	15.53	0.61	550.5192982	215.1321547	51697	20.28671296	10.63123288
2008	139	15.56	4.44	12.5	0.05	428.0421053	236.0624843	51805	21.30733796	10.64606126
2008	140	12.78	4.44	10.49	0.98	301.1508772	337.4939703	51910	21.38171296	10.07822076
2008	141	12.78	6.11	10.94	0.47	256.322807	149.0528896	52014	21.04041667	9.430446804
2008	142	15	6.11	12.56	0.12	359.3473684	291.2318379	52114	20.63352778	9.436310221
2008	143	13.33	6.67	11.5	0	264.9403509	377.579158	52212	19.92820059	10.21896287
2008	144	18.89	6.11	15.38	0	564.2736842	488.9290166	52308	19.47409722	10.17391217
2008	145	21.67	6.11	17.39	0	731.9578947	530.3457634	52400	19.35071759	10.89386005
2008	146	23.89	9.44	19.92	0	801.9157895	583.9905125	52490	19.14247685	11.36455562
2008	147	29.44	13.89	25.17	0	1131.242105	490.009624	52577	18.84231481	12.47733855
2008	148	27.22	7.22	21.72	0	1109.866667	328.5980403	52662	18.68746269	14.140318
2008	149	19.44	6.11	15.78	0	596.3157895	585.2339268	52743	18.58342183	13.2459027
2008	150	24.44	8.33	20.01	0	871.8105263	570.3446546	52821	19.40509542	12.40674173
2008	151	26.11	12.22	22.29	0.22	889.5859649	459.8854545	52896	19.99579431	12.74551615
2008	152	27.22	17.78	24.62	0	745.4877193	352.9051143	52969	19.86474681	14.60018417
2008	153	25.56	10	21.28	0	913.1789474	486.2564576	53038	19.73629431	15.01848667
2008	154	25	13.33	21.79	0	757.5298246	542.0388867	53103	19.60066566	14.227775
2008	155	27.78	15	24.26	2.01	930.4982456	379.1178573	53166	17.35676332	14.39901567
2008	156	21.11	17.78	20.19	0.15	232.4	90.04834194	53225	17.13459981	15.3095195
2008	157	28.33	19.44	25.89	0	758.1894737	345.9921548	53281	17.00337158	16.57308333
2008	158	32.78	20.56	29.42	0	1181.515789	525.1338733	53334	16.78678176	18.206381
2008	159	33.33	23.33	30.58	0	1067.480702	518.1060825	53383	16.46771746	18.92441467
2008	160	32.22	22.78	29.62	0	969.2842105	429.2805031	53429	16.42818612	19.4773175
2008	161	33.89	21.67	30.53	1.09	1251.333333	544.4346842	53471	17.19902954	19.88906983
2008	162	32.22	15.56	27.64	0.11	1357.122807	410.0632218	53510	17.29459524	19.485167
2008	163	28.33	16.11	24.97	0	934.1684211	575.5212714	53546	17.32027778	18.56332033
2008	164	30.56	17.78	27.04	0.04	1079.873684	545.3852399	53577	17.25837963	18.24805733
2008	165	31.67	19.44	28.31	0.065	1115.017544	437.034623	53606	17.14946759	18.53325
2008	166	25	15.56	22.4	0.005	661.0736842	181.2395301	53630	16.96393519	18.82461883
2008	167	27.22	16.67	24.32	0.68	803.0315789	548.206464	53651	16.74037037	18.45423867
2008	168	26.67	13.89	23.15	0.82	875.8596491	355.7539921	53669	16.6419213	17.66651343
2008	169	19.44	13.33	17.76	0.14	352.6877193	299.6079692	53682	18.08944444	16.25672327
2008	170	18.89	8.89	16.14	0	487.4385965	230.6295793	53693	18.39039627	15.3308354
2008	171	20	11.11	17.56	0	480.1614035	342.9473361	53699	17.9887963	14.35160097
2008	172	26.11	13.33	22.6	0	849.5789474	471.4200588	53702	17.60486111	15.06330377
2008	173	28.33	15	24.67	1.01	982.3789474	515.138638	53701	17.64497685	16.07452205
2008	174	26.67	15.56	23.61	0.03	805.2491228	539.7242811	53696	17.32439815	17.06005004
2008	175	25.56	12.78	22.04	0.1	823.9719298	482.1374236	53688	16.87803241	16.96363521
2008	176	25	13.33	21.79	0	757.5298246	423.956815	53676	16.5050463	16.27542573
2008	177	27.22	15	23.86	0.15	879.6982456	441.7024282	53661	16.22671296	16.29200684
2008	178	28.33	18.33	25.58	1.2	822.3719298	305.0543614	53641	16.05939815	18.34277355
2008	179	26.67	19.44	24.68	0	595.7403509	276.8843134	53619	15.79034946	18.27080027
2008	180	28.89	18.89	26.14	0.04	847.0035088	350.0097029	53592	15.35703629	18.97255817
2008	181	27.22	17.22	24.47	0.14	774.9263158	308.2490012	53562	14.96418215	18.77389167
2008	182	25.56	15.56	22.81	0	708.1122807	417.4633376	53529	14.63065533	18.435032
2008	183	22.78	13.33	20.18	0	584.9122807	300.6619244	53491	14.3334359	17.59915983
2008	184	27.22	15	23.86	0.02	879.6982456	560.1282857	53451	14.07881793	17.18966667
2008	185	25.56	18.33	23.57	0.02	561.3684211	231.8553748	53407	16.1862963	17.19759633
2008	186	23.89	17.78	22.21	2.12	450.7157895	199.8697127	53359	15.73222222	17.5713325
2008	187	24.44	16.11	22.15	0	587.5438596	256.6897839	53308	15.37212121	17.748452
2008	188	27.78	17.22	24.88	0.01	827.3754386	370.6546738	53254	16.50761574	18.25809733
2008	189	27.22	18.89	24.93	0	682.4421053	297.1433942	53196	16.73652778	19.04244917
2008	190	30.56	18.89	27.35	0.44	1022.140351	501.4656629	53135	16.00342593	19.66559717
2008	191	26.67	16.11	23.76	0	779.2982456	190.4580091	53071	15.61800926	19.69652967
2008	192	26.67	15	23.46	0	829.9649123	565.0716361	53004	15.19763889	19.18777867
2008	193	28.33	16.67	25.12	0	908.1964912	471.9697353	52933	14.82013889	18.553595
2008	194	31.11	19.44	27.9	0.33	1052.449123	520.0338063	52860	14.54576389	19.39912633
2008	195	27.78	17.22	24.88	0	827.3754386	355.3178675	52783	14.51840278	20.28596433
2008	196	26.67	15.56	23.61	0	805.2491228	522.2584862	52703	14.42659722	19.53574683
2008	197	28.33	16.11	24.97	0	934.1684211	560.3976055	52620	14.269375	18.58602283
2008	198	31.11	17.22	27.29	0	1166.105263	557.7513277	52535	14.08414352	18.85892847
2008	199	31.67	20	28.46	0.12	1083.508772	438.8623918	52446	13.90543981	19.76299733
2008	200	32.22	21.11	29.17	0	1081.25614	413.3001242	52355	13.77634033	20.3687942
2008	201	31.67	20	28.46	0.385	1083.508772	517.5354854	52261	13.77893519	20.67772447
2008	202	32.22	18.89	28.56	0.005	1208.421053	409.5625719	52164	13.77561772	20.33071987
2008	203	29.44	18.33	26.39	0.4	934.6666667	405.7065783	52065	13.64523148	20.47445883
2008	204	28.89	19.44	26.29	1.29	814.6315789	414.7642553	51963	13.52527778	20.400245
2008	205	23.33	15	21.04	1.04	552.8491228	134.2814223	51858	13.40064815	19.40701117
2008	206	25	14.44	22.1	0	711.6350877	347.1107418	51751	13.29393519	18.276037
2008	207	27.78	15.56	24.42	0	906.5894737	534.5950002	51642	13.1918287	18.20506006
2008	208	28.33	18.33	25.58	0	822.3719298	433.7922375	51530	13.20675926	18.77637125
2008	209	27.22	15.56	24.01	0	855.3824561	487.9174592	51417	14.04303241	19.465443
2008	210	28.89	17.22	25.68	0	935.6210526	493.0210721	51300	13.51243056	18.86356117
2008	211	30	17.78	26.64	0.52	1021.207018	475.7485444	51182	13.22805556	19.39652367
2008	212	29.44	18.33	26.39	0	934.6666667	331.2877091	51062	13.09493056	19.3130665
2008	213	28.89	17.78	25.83	0	907.4596491	465.3030487	50939	13.0094213	20.10674583
2008	214	28.33	18.89	25.74	0.01	791.0035088	488.1866181	50815	12.93525463	19.791718
2008	215	27.78	16.11	24.57	0	881.4526316	403.8918087	50688	12.85409722	19.841906
2008	216	25.56	15	22.65	0	733.6140351	401.7587619	50560	12.76747685	19.05662733
2008	217	27.78	16.67	24.72	0.1	855.0596491	479.2455879	50430	12.72680556	18.76093617
2008	218	24.44	19.44	23.07	0.39	394.4982456	146.635572	50298	12.68159722	19.1827862
2008	219	28.89	16.67	25.53	0.05	962.4561404	530.552428	50164	12.62268519	19.97472977
2008	220	26.67	14.44	23.31	0.1	853.4947368	348.5250954	50029	12.59613426	18.82840133
2008	221	23.89	12.22	20.68	0	712.2807018	435.3575924	49892	12.56101852	17.95311983
2008	222	24.44	13.89	21.54	0.02	690.2175439	512.9065603	49754	12.48988345	17.40192217
2008	223	25	14.44	22.1	0.04	711.6350877	470.5948724	49614	16.5343287	17.440086
2008	224	21.67	14.44	19.68	0	453.9789474	312.5321596	49472	18.60275463	17.01265883
2008	225	24.44	12.78	21.24	0	734.6105263	409.6248125	49330	17.29201389	17.29702883
2008	226	27.78	13.89	23.96	0.55	974.7929825	429.6788924	49186	16.31541667	17.39620883
2008	227	25.56	15.56	22.81	0	708.1122807	329.5958401	49040	15.56831019	17.70935733
2008	228	25.56	12.78	22.04	0	823.9719298	440.5088354	48894	14.91872685	17.56981567
2008	229	25.56	14.44	22.5	0	757.9157895	485.5606204	48746	14.38180556	17.17343333
2008	230	27.22	15	23.86	0	879.6982456	479.3240941	48597	13.95895833	17.34158533
2008	231	29.44	17.22	26.08	0	991.4596491	519.4066383	48446	13.62599537	17.815683
2008	232	26.11	10	21.68	0	957.4807018	374.7148773	48295	13.47032407	18.09006397
2008	233	25.56	11.11	21.58	0	880.4421053	558.3377853	48143	13.41152778	17.01953122
2008	234	29.44	12.78	24.86	0	1168.575439	536.697562	47990	13.26516204	16.91055603
2008	235	30	16.11	26.18	0	1099.087719	528.263379	47836	18.17439815	18.07648504
2008	236	27.78	17.78	25.03	0	798.3508772	487.5682976	47681	18.27844907	18.1742005
2008	237	31.11	18.89	27.75	0.13	1082.968421	468.8788006	47525	17.38733796	18.49916883
2008	238	27.78	12.78	23.65	0	1014.603509	525.5087823	47368	18.86893519	18.91014473
2008	239	26.11	13.33	22.6	0.003895833	849.5789474	521.6431053	47210	20.10106481	17.56332097
2008	240	26.67	13.89	23.15	0.634125	875.8596491	430.7492561	47052	19.91898148	17.061494
2008	241	17.78	15.56	17.17	0.228345833	133.9719298	84.78493592	46893	19.72289352	16.63892083
2008	242	21.11	16.67	19.89	0	298.2175439	151.1140497	46734	19.45868056	17.00096433
2008	243	27.22	12.22	23.1	0	984.1192982	303.0324007	46573	19.13856481	17.98709917
2008	244	27.22	13.33	23.4	0	945.6491228	536.7217159	46413	18.75	17.38625133
2008	245	26.67	12.78	22.85	0	917.2561404	540.0980303	46251	18.42125	17.1286
2008	246	29.44	14.44	25.32	0	1110.919298	528.1481265	46089	18.18611111	17.089326
2008	247	30.56	15.56	26.43	0	1179.347368	507.259673	45927	18.00388889	17.656088
2008	248	31.67	16.11	27.39	0	1274.596491	481.1607814	45764	17.84256944	18.103045
2008	249	31.11	20.56	28.21	0.05584375	986.9403509	451.3041667	45600	17.68296296	18.71906867
2008	250	22.78	12.78	20.03	0.001297917	607.6070175	102.935339	45437	17.46574074	18.9557967
2008	251	25	13.89	21.94	0.002595833	735.1508772	420.2074571	45272	17.23444444	18.22116998
2008	252	26.67	13.89	23.15	0.62999375	875.8596491	477.720094	45108	17.05833333	17.60944118
2008	253	20	9.44	17.1	0.0122	537.7473684	103.7893554	44943	18.12136574	17.39391928
2008	254	21.11	10.56	18.21	0.00726875	572.877193	485.4580151	44778	20.49496503	16.2708472
2008	255	20.56	13.33	18.57	0.68049375	426.7087719	303.217672	44613	20.88675926	15.89626573
2008	256	21.11	18.33	20.35	0.05988125	197.4105263	84.06061151	44447	20.92405093	17.0476706
2008	257	24.44	19.44	23.07	0.0077875	394.4982456	200.9966803	44281	21.16386574	18.2820114
2008	258	29.44	18.89	26.54	0	904.1824561	374.1760172	44115	21.31886574	19.38527015
2008	259	22.78	11.67	19.72	0	649.7964912	298.3259232	43949	21.08842593	19.11867531
2008	260	20	9.44	17.1	0.002595833	537.7473684	226.0229313	43783	20.9819213	17.02985466
2008	261	23.33	10	19.67	0	745.277193	475.0160029	43617	20.953125	16.09003235
2008	262	21.11	7.78	17.44	0	656.7087719	442.9891369	43450	20.80111111	16.11321985
2008	263	20.56	8.33	17.19	0	606.2245614	419.7895989	43284	20.61128205	15.26621954
2008	264	21.11	10	18.06	0.003895833	591.4526316	409.7163764	43117	20.47027778	15.05129053
2008	265	24.44	10	20.47	0.002595833	827.4035088	407.9027962	42951	20.38208333	15.15936392
2008	266	19.44	7.78	16.24	0	553.522807	190.3744858	42784	20.28453704	15.29815823
2008	267	21.11	8.89	17.75	0	625.8315789	410.743606	42618	20.13430556	14.7416825
2008	268	23.33	9.44	19.51	0	761.6350877	461.1823942	42452	19.99967593	14.50056167
2008	269	20.56	11.11	17.96	0.00519375	516.3438596	365.7231471	42286	19.89787037	14.60048933
2008	270	17.78	12.22	16.25	0.307825	297.5859649	85.06794872	42120	19.80354167	14.80417783
2008	271	21.11	16.67	19.89	0.688397917	298.2175439	146.5197597	41954	19.726875	16.073031
2008	272	22.22	13.89	19.93	0.0077875	519.9087719	216.5280942	41788	19.68053241	17.13759367
2008	273	20.56	10	17.65	0	555.0736842	270.7031689	41623	19.58347222	16.52811583
2008	274	18.33	10	16.04	0.233795833	417.4245614	189.9629987	41458	19.45377315	14.893194
2008	275	15.56	8.33	13.57	0	320.5614035	173.7329329	41293	19.31743056	14.16487033
2008	276	12.78	8.33	11.56	0	185.5578947	241.5923071	41129	19.19696759	13.09481017
2008	277	15	5	12.25	0.103904167	388.154386	164.1662924	40964	19.11601852	12.3758245
2008	278	14.44	6.11	12.15	0	332.6807018	231.4760913	40801	19.03819444	11.565312
2008	279	16.67	7.78	14.22	0.002595833	396.3438596	416.6164825	40637	18.96326389	12.1173195
2008	280	16.67	2.22	12.69	0.0181875	526.7087719	375.476627	40474	18.90365741	12.0149635
2008	281	16.67	2.78	12.85	0.01688125	516.7719298	432.2290881	40312	20.24310185	10.81735503
2008	282	16.67	7.22	14.07	0.035064583	412.7508772	218.5872478	40150	21.30544304	11.14282967
2008	283	21.67	8.89	18.15	0	662.4070175	389.0816224	39989	21.56490101	13.40339767
2008	284	21.11	6.11	16.99	0	696.8982456	422.8133725	39828	21.82435897	12.97412733
2008	285	21.11	5.56	16.83	0	708.7719298	416.9137066	39667	21.76801865	12.35403333
2008	286	22.78	7.78	18.65	0	767.0315789	407.251139	39508	21.91289352	12.53982267
2008	287	25	8.89	20.57	0	899.6140351	307.6376782	39349	21.87638889	12.8040885
2008	288	26.11	8.89	21.37	0	985.8385965	340.0631778	39191	21.83923611	13.275849
2008	289	23.33	12.78	20.43	0	649.0245614	314.6322343	39033	21.79614035	14.78190567
2008	290	20	8.89	16.94	0	555.0877193	96.48724149	38876	21.73713994	14.821793
2008	291	12.22	2.78	9.62	0	316.6035088	154.1217459	38720	21.67813953	12.36477083
2008	292	10.56	-1.11	7.35	0	324.5192982	289.662077	38565	21.64770833	10.43657772
2008	293	11.67	-1.11	8.15	0.003895833	365.1789474	411.4896254	38411	21.61689815	9.469537217
2008	294	16.11	-0.56	11.53	0.002595833	541.9649123	367.0695802	38258	21.59956019	8.800280967
2008	295	10.56	2.78	8.42	0	250.8	217.2820028	38106	21.59763889	9.1798608
2008	296	9.44	0.56	7	0	256.554386	281.3326044	37955	21.57532407	8.957874717
2008	297	12.22	0.56	9.01	0	359.8245614	390.2720612	37804	21.49293981	8.341854633
2008	298	13.89	6.67	11.9	1.540483333	290.6175439	167.6808392	37655	21.41143519	8.4012301
2008	299	14.44	3.33	11.39	0.005191667	400.4912281	43.15066521	37507	21.34650463	9.943415233
2008	300	16.67	3.89	13.15	0	494.9824561	364.9315329	37361	21.89819444	9.468852383
2008	301	8.89	3.89	7.51	0.007791667	161.8526316	251.9830713	37215	22.37550617	9.5886378
2008	302	6.67	1.11	5.14	0.18833125	153.4105263	98.94246176	37071	22.58967366	8.43952235
2008	303	4.44	-0.56	3.07	0.001297917	122.6666667	103.6515923	36928	22.68930556	6.80652015
2008	304	8.89	-0.56	6.29	0	257.7403509	369.0951695	36787	22.48981982	6.5825919
2008	305	18.33	3.33	14.21	0	592.1684211	351.7090076	36647	21.9818548	7.014874533
2008	306	17.78	4.44	14.11	0	540.7368421	231.4742118	36509	21.77760328	8.818536567
2008	307	9.44	3.89	7.92	0	182.1403509	187.2377103	36372	21.69525187	8.753033867
2008	308	14.44	7.22	12.46	0	300.322807	258.375031	36237	21.61674448	9.01019265
2008	309	13.89	8.89	12.51	0.01	218.3298246	100.4017395	36103	21.54531723	9.598966183
2008	310	18.33	8.89	15.74	0	454.7368421	257.0485669	35971	21.69610256	10.56963005
2008	311	20	10	17.25	0	519.4947368	242.4719176	35841	21.65032407	11.336407
2008	312	21.67	9.44	18.31	0.24	645.9719298	308.8003248	35713	21.64803241	11.88558017
2008	313	12.78	4.44	10.49	0	301.1508772	134.4137582	35586	21.90907407	11.11031983
2008	314	8.33	1.67	6.5	0	195.6070175	146.6516271	35462	22.17898148	9.271604183
2008	315	3.89	0.56	2.97	0	84.36491228	155.6687512	35339	22.46491726	7.858047233
2008	316	4.44	0	3.22	0	111.4736842	123.6229308	35219	22.42414352	7.0329933
2008	317	10	0.56	7.4	1.51	276.2175439	228.2574359	35100	22.38722222	7.22607755
2008	318	8.89	5.56	7.97	0	115.0035088	38.74857078	34984	22.77847222	7.51509305
2008	319	11.67	8.33	10.75	0.59	135.8245614	94.88379696	34870	22.37296296	8.6705713
2008	320	13.33	2.22	10.28	0.05	374.4701754	41.89573923	34759	22.14173611	9.609258383
2008	321	5	0.56	3.78	0.04	115.4596491	114.7539612	34649	22.00168981	7.790283567
2008	322	2.78	-3.89	0.94	0	137.4175439	119.3574779	34542	21.884375	6.477928067
2008	323	-0.56	-6.67	-2.24	0	103.4105263	215.6341251	34438	21.75115741	4.656617983
2008	324	0	-5.56	-1.53	0	99.83157895	222.922472	34336	21.65898148	3.4786987
2008	325	3.89	-2.78	2.06	0.15	147.677193	126.9326752	34237	21.56916667	3.930760717
2008	326	-1.11	-6.67	-2.64	0	92.70175439	141.2762742	34140	21.49861111	3.564380583
2008	327	-1.67	-6.11	-2.89	0	74.85614035	179.2016683	34046	22.06662037	2.831294317
2008	328	2.78	-6.67	0.18	0.68	173.9508772	289.8008482	33954	22.79261574	2.469676515
2008	329	2.22	-5.56	0.08	0.94	147.7754386	81.5214079	33866	23.0049537	2.120269915
2008	330	3.89	0	2.82	0.05	96.26666667	162.728952	33780	22.37393519	2.53703195
2008	331	1.67	0	1.21	0	39.15789474	90.9198445	33697	22.13784722	2.69115255
2008	332	5.56	-2.22	3.42	0	183.4526316	263.3917544	33618	22.01305361	2.828267817
2008	333	5.56	-1.11	3.72	0	164.3087719	229.6326884	33541	21.98456019	2.762012017
2008	334	5.56	-3.33	3.11	0.73	200.645614	268.2057549	33467	22.45825175	3.035957943
2008	335	3.89	0	2.82	0.41	96.26666667	25.89807468	33397	22.74877315	2.794495375
2008	336	6.11	0	4.43	0	159.4596491	120.3406043	33329	23.25122685	3.531155212
2008	337	2.22	-5	0.24	0	140.3578947	121.3659402	33265	22.83270833	3.581130722
2008	338	6.67	-4.44	3.61	0	246.7719298	271.7797253	33204	22.36145833	2.91681817
2008	339	7.78	-3.89	4.57	0	272.2807018	29.142883	33146	22.12097222	3.566464285
2008	340	-1.67	-8.33	-3.5	0	102.2736842	141.4201015	33092	21.881875	2.224762967
2008	341	-1.67	-8.33	-3.5	0.03	102.2736842	134.0420084	33041	22.59766204	1.418810183
2008	342	-3.89	-9.44	-5.42	0	76.76491228	144.8592732	32993	22.97645833	1.02373055
2008	343	-1.11	-8.89	-3.25	0	118.2526316	78.60147501	32949	22.50490741	0.762486335
2008	344	11.67	-2.22	7.85	1.47	380.6105263	176.9446656	32909	22.72944444	1.387687502
2008	345	12.22	-1.11	8.56	1.365	386.2526316	30.39005841	32872	22.68615741	2.945005083
2008	346	1.67	-1.11	0.9	1.145	62.37894737	20.18929289	32838	22.52634259	3.033106483
2008	347	1.67	-6.11	-0.47	0	142.4561404	76.9372714	32808	22.31326389	2.724113417
2008	348	-0.56	-6.11	-2.08	0	96.21052632	241.9216033	32782	22.12428241	2.154702083
2008	349	9.44	-1.67	6.39	0.265	294.477193	251.2587381	32759	21.97175926	2.4239456
2008	350	13.89	-1.67	9.61	0.315	459.7824561	70.74098962	32740	21.85402778	3.438138867
2008	351	1.11	-2.22	0.19	1.07	70.59649123	68.16776678	32724	21.75891204	3.259205333
2008	352	3.33	-0.56	2.26	0	92.91929825	40.82190022	32712	21.67356481	2.7973959
2008	353	2.22	-0.56	1.46	3.18	64.64561404	88.91077544	32704	21.61291667	2.976317583
2008	354	5.56	-4.44	2.81	0.02	216	15.4468944	32699	21.59280093	2.420737733
2008	355	-2.78	-5.56	-3.54	0.12	46.58245614	137.640712	32698	22.15474537	2.046831483
2008	356	1.67	-15.56	-3.07	0	214.0280702	182.3404789	32701	22.65775463	1.6545169
2008	357	-7.78	-14.44	-9.61	0	66.78596491	261.2881035	32707	22.32789352	0.853892362
2008	358	1.11	-11.11	-2.25	3.335	179.6561404	149.4164502	32717	22.07006944	0.241004086
2008	359	9.44	-0.56	6.69	0.315	276.5824561	44.81274633	32731	21.91837963	0.245230586
2008	360	0	-5.56	-1.53	0	99.83157895	173.5758649	32749	21.81589744	0.259533345
2008	361	2.78	-4.44	0.79	0.36	145.5578947	183.3182179	32770	21.7230787	0.621395968
2008	362	9.44	0	6.85	0.01	266.8421053	127.746539	32794	21.61037037	0.773267809
2008	363	12.22	0	8.86	0	369.1719298	142.5615136	32822	21.53162037	1.001080324
2008	364	6.67	-1.11	4.53	0	196.8912281	258.5131795	32854	21.44474537	1.083118947
2008	365	3.89	-1.11	2.51	0.08	118.4	262.1079996	32889	21.36761574	0.956272686
2009	1	1.67	-9.44	-1.39	0	264.1864349	155.0455539	32928	21.29354167	0.590941398
2009	2	-1.67	-9.44	-3.81	0	252.0662643	277.2813078	32971	21.21576389	0.592997263
2009	3	5.56	-5.56	2.5	0	338.4527851	154.4734834	33017	21.18518519	0.396095402
2009	4	1.11	-7.78	-1.33	0	169.1340428	250.4367628	33066	21.14337963	0.361824697
2009	5	3.89	-7.22	0.83	0.01	266.6382496	130.8097467	33119	21.10912037	0.634411214
2009	6	3.89	-3.33	1.9	0.44	227.4430348	186.7836925	33175	21.07379953	0.523533892
2009	7	0	-3.33	-0.92	1.83	50.3711006	35.42534754	33234	21.10784722	0.558141683
2009	8	2.22	-3.33	0.69	0	165.2672999	35.77024267	33296	21.24372685	0.429593151
2009	9	-2.22	-5.56	-3.14	0	139.4944835	142.8110425	33362	21.18284722	0.311407104
2009	10	-2.78	-5.56	-3.54	0.955	49.44759858	211.1762735	33431	21.11118056	0.249778536
2009	11	-0.56	-5.56	-1.93	0.095	108.3172789	52.56209892	33503	21.04925926	0.201448939
2009	12	-3.33	-6.11	-4.1	0	119.1433274	124.0813008	33579	21.000625	0.218612373
2009	13	-0.56	-6.67	-2.24	0	110.799546	187.169623	33657	20.9662963	0.207900998
2009	14	0.56	-12.78	-3.11	0.085	98.79150683	92.89187267	33738	20.93553241	-0.039953369
2009	15	-7.78	-13.33	-9.31	0.165	98.60923509	191.2382177	33822	21.27025463	-0.130095666
2009	16	-8.89	-17.22	-11.18	0	94.76454865	195.8472972	33909	22.25451389	-0.438000144
2009	17	-13.33	-18.89	-14.86	0	68.80729022	272.8107297	33999	22.08608796	-0.446218965
2009	18	-6.67	-19.44	-10.18	0.23	44.73166455	213.4915229	34092	21.99233796	-0.322418055
2009	19	-3.33	-7.78	-4.56	0.04	102.9768209	115.1936116	34187	21.9107173	-0.362478682
2009	20	-4.44	-12.22	-6.58	0	118.3555004	198.6965145	34285	21.71625	-0.298334826
2009	21	-3.89	-12.78	-6.33	0	155.8506765	153.4316873	34386	21.58460094	-0.297580555
2009	22	-4.44	-12.78	-6.74	0	150.5775132	254.0363014	34489	22.53490741	-0.19275281
2009	23	4.44	-5.56	1.69	0	233.9671771	303.8885966	34595	22.63564815	-0.086051338
2009	24	10.56	-2.78	6.89	0.00445	438.592215	286.1560672	34703	22.45127315	-0.248217213
2009	25	-1.11	-12.78	-4.32	0.018333333	108.7026327	191.2816683	34814	22.51858796	-0.695011805
2009	26	-7.22	-12.78	-8.75	0.000683333	107.2715216	133.0920804	34926	22.86659674	-0.6714299
2009	27	-2.78	-10.56	-4.92	0.009583333	153.6160651	253.7081217	35042	22.55166667	-0.67522184
2009	28	-2.78	-6.67	-3.85	1.365966667	67.40931715	137.0974146	35159	22.31849537	-0.625323248
2009	29	1.67	-8.33	-1.08	0.008666667	211.3752309	56.87618346	35278	22.195	-0.569163705
2009	30	-0.56	-8.33	-2.69	0.087966667	154.5088648	275.4467797	35400	22.08409722	-0.577287268
2009	31	0	-11.11	-3.06	0.001216667	203.5899768	196.1663711	35523	21.95965278	-0.617125428
2009	32	-1.11	-11.67	-4.01	0	164.3049002	324.5517125	35649	21.86314815	-0.436206182
2009	33	9.44	-1.11	6.54	0.060466667	152.2796808	331.9759895	35776	21.9919213	-0.342651662
2009	34	3.89	-4.44	1.6	0.004133333	147.6905964	70.00790976	35905	22.12016204	-0.41716836
2009	35	1.67	-8.89	-1.24	0.09065	176.1774139	253.5008048	36036	21.97761574	-0.545501852
2009	36	-3.89	-16.11	-7.25	0.001	147.1429927	217.5034422	36169	21.88622685	-0.781788905
2009	37	-7.22	-15.56	-9.51	0	139.7014676	362.013222	36303	21.83303241	-0.739787707
2009	38	3.33	-8.33	0.12	0	237.8874798	360.4623765	36440	21.72706019	-0.418762959
2009	39	12.78	-2.78	8.5	0.000316667	419.5200398	217.6037947	36577	21.6362963	-0.468114993
2009	40	10.56	-2.22	7.04	0	386.0580639	216.7615209	36716	21.59300926	-0.192399073
2009	41	7.22	-2.22	4.62	0.157616667	200.2813618	341.0010853	36857	21.74918981	0.283540747
2009	42	10	2.78	8.01	0.013283333	279.2561642	85.07354253	36999	22.0831713	1.42649607
2009	43	16.67	5	13.46	0.499733333	600.4362025	260.6041515	37143	22.09157407	1.732218424
2009	44	6.11	1.11	4.74	0.0026	318.3311801	86.93394481	37287	22.018125	1.35426397
2009	45	2.22	-0.56	1.46	0.107133333	167.2721316	72.22969038	37433	21.90243056	1.254566053
2009	46	0.56	-5	-0.97	0.005033333	227.6195056	123.0332881	37581	21.7837037	1.176902235
2009	47	2.22	-5.56	0.08	1.67E-05	272.1943102	351.0557396	37729	21.70287037	0.900053468
2009	48	0.56	-7.78	-1.74	0	236.7528368	228.1077114	37879	21.68081019	0.624521288
2009	49	3.33	-7.78	0.28	0.480608333	161.2265878	385.4023245	38029	21.71354167	0.562335183
2009	50	4.44	-1.67	2.76	0.280633333	194.6061353	38.35342186	38181	21.79323671	0.575147688
2009	51	2.22	-8.89	-0.83	0.008408333	251.1921475	190.9096885	38334	22.55805556	0.139543287
2009	52	-3.89	-8.89	-5.26	0	223.1231013	225.5153169	38487	22.50099537	0.038640739
2009	53	3.33	-7.22	0.43	0.093208333	260.7307378	391.3288132	38642	22.31199074	0.111804161
2009	54	0	-6.67	-1.83	0.049475	229.8927661	202.9565957	38798	22.17747685	-0.106102778
2009	55	-3.89	-11.11	-5.87	0	188.3726894	209.4387226	38954	22.04481481	-0.360381787
2009	56	-0.56	-11.11	-3.46	0	249.314548	429.0285597	39111	21.94965278	-0.169163195
2009	57	8.33	-7.22	4.06	0.015366667	428.006074	414.2311747	39269	21.88858796	0.456634912
2009	58	12.78	2.78	10.03	0.744733333	279.7922266	197.8326063	39428	21.86363426	1.073350702
2009	59	12.78	-3.89	8.19	0.000133333	487.0341169	86.0709829	39587	22.3399537	1.242243283
2009	60	1.67	-4.44	-0.01	0	345.0601914	354.4487634	39747	22.35363426	1.129675917
2009	61	3.89	-8.33	0.53	3.33E-05	354.7241505	289.1103315	39907	22.2793287	0.513456023
2009	62	-5.56	-13.89	-7.85	0	201.4583111	340.3241739	40068	22.15398601	0.091859722
2009	63	-2.22	-13.89	-5.43	0	249.8397379	454.3288839	40230	22.02039352	-0.134418055
2009	64	2.78	-11.11	-1.04	0	353.4684994	460.430506	40392	21.92710648	0.222493982
2009	65	11.67	-7.22	6.47	0	543.6752737	439.2025151	40555	21.85020833	1.591128935
2009	66	20	8.33	16.79	0.004733333	744.2677937	296.3650474	40718	21.76944444	3.661941667
2009	67	21.67	12.78	19.22	0.840566667	457.0879083	174.0303801	40882	21.71587963	5.0602231
2009	68	15	6.11	12.56	0.508116667	356.2603444	44.59771963	41046	21.84986111	4.68408935
2009	69	10	1.67	7.71	0.06885	242.4558126	118.2215482	41210	22.41738426	3.922303933
2009	70	7.22	2.22	5.85	0.024183333	404.9297895	78.0172568	41375	22.58108796	4.823018283
2009	71	17.22	-2.78	11.72	3.33E-05	795.2153365	390.1841358	41540	22.68148148	3.57351065
2009	72	2.78	-5	0.64	0	319.2155879	317.3720177	41705	22.79106481	3.26449745
2009	73	6.67	-5	3.46	0	326.2932209	466.8058276	41870	22.54828704	3.602295367
2009	74	11.11	-1.11	7.75	0	333.8742675	389.5550718	42036	22.52296296	4.896749533
2009	75	13.89	2.22	10.68	0.651216667	274.9745386	392.044595	42202	22.73171296	5.125130783
2009	76	11.67	3.33	9.38	0.127316667	267.5401823	124.9391758	42368	23.08974537	5.551244217
2009	77	12.78	2.78	10.03	0	448.9978894	256.0915503	42534	22.94766204	6.145179867
2009	78	22.78	3.89	17.58	0.003683333	1053.709672	434.3761973	42701	22.56606481	6.74820995
2009	79	12.78	-2.22	8.65	0.004033333	629.3741589	321.2826183	42867	22.49826389	4.972917817
2009	80	6.67	-6.11	3.15	0	449.3988361	337.8049172	43033	22.51886574	3.879189617
2009	81	8.33	-6.11	4.36	0	434.1245019	406.4468056	43200	22.36421296	4.06765255
2009	82	12.22	-3.33	7.94	0	772.7372812	355.0930683	43366	22.76447552	4.113649067
2009	83	7.78	-6.67	3.81	0	602.8603107	528.8867755	43533	22.56423611	3.667400933
2009	84	8.89	-6.11	4.76	0.000116667	618.5631465	512.8243438	43699	22.43493056	3.5882405
2009	85	10	2.22	7.86	1.215633333	109.8442733	258.5353699	43865	22.34358796	4.112110883
2009	86	5.56	1.67	4.49	0.001033333	272.2866165	45.54219658	44032	22.2818287	5.278441433
2009	87	14.44	2.78	11.24	0.335508333	168.8633258	400.4028463	44198	22.24319444	6.180595833
2009	88	12.22	7.22	10.85	0.7059	227.6366565	89.91249465	44363	22.19490741	6.663504167
2009	89	10.56	1.11	7.96	0.068941667	343.3438813	145.1713041	44529	22.16418981	5.470238667
2009	90	3.89	0	2.82	0	353.6276041	159.5307081	44695	22.10712963	6.037169217
2009	91	16.11	0.56	11.83	0.710925	256.8713881	507.5134195	44860	22.05821759	6.149077083
2009	92	8.89	6.11	8.13	0.019375	314.3319836	105.789628	45025	22.50356481	7.900946067
2009	93	18.89	6.67	15.53	1.815816667	278.580352	461.6348971	45190	22.56074592	8.7522632
2009	94	15.56	3.33	12.19	0.02295	640.2511348	79.33589099	45354	23.03354167	7.71594885
2009	95	8.89	2.22	7.06	0	645.7900798	374.2813173	45518	23.20837963	7.8282294
2009	96	18.89	2.78	14.46	0.451816667	490.0568742	525.2196537	45681	23.31976852	8.074059017
2009	97	12.22	-1.11	8.56	0.01775	442.7006644	176.3503981	45845	23.42407407	6.091749533
2009	98	3.89	-0.56	2.67	0.001783333	422.2031368	243.2642859	46007	22.88868056	5.906940733
2009	99	10	-0.56	7.1	0	604.6907822	351.3453616	46169	22.75275463	6.201961117
2009	100	15	1.11	11.18	0.184116667	399.0540823	542.5718849	46331	22.5844213	6.25099075
2009	101	9.44	3.89	7.92	0.205133333	503.8963151	102.5447389	46492	22.39863426	7.347819683
2009	102	12.78	-1.11	8.96	0	778.1438675	444.5026901	46653	22.25046296	6.66879815
2009	103	10	-2.78	6.49	0.000966667	547.4747602	572.1304552	46813	22.10428241	6.1267449
2009	104	12.78	-1.11	8.96	1.050633333	119.0061886	368.7307332	46972	22.33134259	6.233354633
2009	105	7.78	5	7.01	1.37	116.3689887	46.34452908	47131	22.92506944	6.429903483
2009	106	7.78	-0.56	5.49	0.000516667	416.5154791	127.4696864	47289	22.96458333	7.183044217
2009	107	18.33	1.11	13.6	0	1103.46758	564.2099018	47446	23.41256944	8.100519667
2009	108	21.11	4.44	16.53	0	1361.317267	569.9938238	47602	22.86358796	9.216704633
2009	109	23.33	10.56	19.82	0.003033333	1347.874024	541.9207463	47758	22.54606481	10.05577963
2009	110	20	5	15.88	0.924775	348.6805386	298.7421523	47912	22.30081019	8.6613176
2009	111	7.78	4.44	6.86	0.536141667	175.0739881	73.9256231	48066	22.0725	8.794954867
2009	112	17.22	5	13.86	0.023133333	482.297071	306.7959311	48219	21.85273148	7.9391236
2009	113	11.11	2.22	8.67	0.143816667	464.8843314	330.8135415	48370	21.67622685	7.84872205
2009	114	12.78	3.33	10.18	0.030466667	606.7031419	394.161765	48521	21.51928241	8.74412315
2009	115	23.89	5	18.69	0	1212.598359	434.9593392	48671	21.38547786	11.06692868
2009	116	30	13.89	25.57	0	2066.634528	432.1242549	48819	21.28256944	12.872462
2009	117	31.11	15	26.68	0	2221.143246	546.1681371	48966	21.41907407	14.164437
2009	118	32.22	16.67	27.94	0	1939.849546	541.3218154	49112	21.59560185	14.655188
2009	119	29.44	6.67	23.18	0.0001	1225.275917	493.4652334	49257	23.06613426	13.543775
2009	120	19.44	7.22	16.08	0.090716667	512.5185758	402.8471893	49401	22.88622685	12.18818
2009	121	17.22	11.11	15.54	0.344066667	329.7594936	118.7372182	49543	22.51784722	12.70728017
2009	122	21.67	11.11	18.76	0.6231	726.5510594	233.1827788	49683	22.19726852	12.89560767
2009	123	17.78	8.33	15.18	0.264616667	280.056739	326.1133011	49823	22.00337963	11.576427
2009	124	14.44	8.33	12.76	1.5003	146.8725817	177.5458567	49960	22.39884259	11.287524
2009	125	11.11	9.44	10.65	0.673058333	196.1258044	78.52561083	50096	23.20833333	11.0739125
2009	126	13.33	9.44	12.26	0.68195	211.5938044	127.9462881	50231	23.23171296	11.61468183
2009	127	18.89	11.11	16.75	0.897275	522.6763283	230.7450906	50363	23.12520833	12.423324
2009	128	21.11	11.11	18.36	0.219233333	366.700773	325.696267	50495	22.71782407	12.34042883
2009	129	22.22	12.78	19.62	0.023866667	757.6694342	263.7159845	50624	22.550625	13.245162
2009	130	24.44	8.89	20.17	0.001066667	1085.621956	307.7087545	50751	23.55497685	12.41621333
2009	131	15.56	6.11	12.96	0.02545	368.7424103	261.8315742	50877	23.0637037	11.11687122
2009	132	15.56	3.89	12.35	0.008583333	620.5911312	217.8732941	51000	22.88016204	10.92327265
2009	133	16.67	4.44	13.31	0	702.4807696	483.4381675	51122	23.47731481	11.17875647
2009	134	21.67	7.22	17.69	1.647083333	282.4456908	479.5092992	51241	23.18898148	12.0907205
2009	135	20	11.11	17.56	0.424166667	606.2392927	242.6118813	51358	22.73467593	13.3921065
2009	136	24.44	11.11	20.78	1.875883333	472.1160068	503.6610067	51473	22.32013889	14.291933
2009	137	26.11	7.78	21.07	0.455283333	1279.800578	327.6518823	51586	22.04101852	13.42447633
2009	138	15	3.89	11.94	0	799.4811004	499.9752597	51697	22.30261574	11.64920378
2009	139	15.56	2.78	12.04	0	674.835982	604.3722614	51805	23.46724537	11.26339255
2009	140	22.22	5.56	17.64	0	1029.752062	598.2218455	51910	23.12090278	12.1660175
2009	141	28.33	11.11	23.6	0	1433.767087	585.7771946	52014	23.82453704	13.10204817
2009	142	29.44	13.89	25.17	0.00005	1243.95323	597.8737192	52114	23.58375	13.89305683
2009	143	28.89	15.56	25.22	0.097833333	798.0652995	447.9868996	52212	23.06414352	14.75360467
2009	144	27.78	15.56	24.42	0.219808333	616.3887921	352.2021679	52308	22.59081019	15.196075
2009	145	29.44	16.11	25.78	0.215925	1196.570604	385.4783015	52400	22.15199074	15.70710833
2009	146	26.11	12.22	22.29	0.580183333	513.7200429	532.2553629	52490	21.70108796	13.98719683
2009	147	12.78	9.44	11.86	0.1383	127.795897	92.49831675	52577	21.33097222	13.088926
2009	148	16.67	10.56	14.99	0.526358333	156.1560378	162.9570088	52662	21.00388889	14.1169635
2009	149	22.78	16.67	21.1	1.356208333	345.4430767	231.3654703	52743	20.74393519	14.96284217
2009	150	20	12.78	18.01	8.33E-05	761.5117931	184.9645217	52821	20.60715278	14.57022583
2009	151	21.67	10	18.46	0	917.7313413	544.0036298	52896	20.53569444	13.83123
2009	152	21.11	5	16.68	0.002316667	748.3944377	546.4939115	52969	21.20273148	13.007849
2009	153	22.78	8.33	18.81	0.405066667	391.0654887	477.6434632	53038	22.05509259	14.18153983
2009	154	23.89	15.56	21.6	1.566466667	162.8550763	323.5355818	53103	22.29490741	14.19061167
2009	155	16.67	11.11	15.14	0.04065	320.1857322	54.65613362	53166	21.99344907	13.7514935
2009	156	17.78	11.11	15.94	0.610183333	142.9780977	217.9634382	53225	21.55236111	13.4810795
2009	157	14.44	12.22	13.83	0.05565	457.0342452	73.79384771	53281	21.09368056	14.44826383
2009	158	24.44	12.78	21.24	0	781.4197036	556.5243934	53334	20.57263889	14.92855367
2009	159	27.22	15.56	24.01	1.172641667	665.3370689	531.5557575	53383	20.09986111	15.89600883
2009	160	27.78	18.33	25.18	0.816958333	607.6812536	390.751633	53429	19.71048611	16.85053367
2009	161	28.33	16.67	25.12	0.053866667	534.0691892	371.963008	53471	19.34231481	16.66832267
2009	162	25	17.78	23.01	0.770391667	246.4732931	323.1155111	53510	19.37240741	16.451369
2009	163	22.22	17.78	21	0.602158333	384.3381698	157.7462929	53546	20.3112037	16.75228583
2009	164	23.89	16.11	21.75	0	696.7668218	266.0981391	53577	19.75425926	16.6149545
2009	165	25	11.11	21.18	0.000166667	901.0650168	364.0599933	53606	19.18803241	16.06725033
2009	166	25	12.78	21.64	0	948.8202684	561.4360619	53630	18.73541667	15.84487767
2009	167	26.67	15	23.46	0	568.0934847	550.5218356	53651	18.32641204	15.6101455
2009	168	22.22	15.56	20.39	1.91045	280.2558962	188	53669	18.06902778	15.20846217
2009	169	16.67	13.89	15.9	0.416083333	268.2314446	135.68088	53682	18.18127315	15.40802
2009	170	21.67	15.56	19.99	0	551.8582417	214.8344291	53693	18.21363426	15.9651195
2009	171	24.44	16.11	22.15	3.7643	322.3490787	340.8653606	53699	18.08446759	16.43381717
2009	172	24.44	16.67	22.31	0.360316667	646.0100973	146.2408476	53702	17.94125	16.46886633
2009	173	23.89	15.56	21.6	1.67E-05	828.393316	276.2871455	53701	17.80321759	16.77141617
2009	174	27.22	15.56	24.01	0	1047.297317	400.843899	53696	18.32946759	16.93585567
2009	175	27.22	14.44	23.71	0.0001	1122.611537	558.2149084	53688	19.55159722	17.11683667
2009	176	29.44	16.11	25.78	0	996.8158224	575.9127916	53676	19.49969907	17.48824283
2009	177	30.56	18.89	27.35	0.1578	778.0274218	507.4936546	53661	19.84719907	18.13777007
2009	178	26.67	15.56	23.61	0	921.1815165	403.7957905	53641	19.61293981	17.94212855
2009	179	26.67	15.56	23.61	0.036816667	359.5379371	491.8327086	53619	19.24321759	17.1483993
2009	180	21.11	13.89	19.12	0.392533333	571.5133907	116.2824116	53592	19.14548611	17.21030395
2009	181	26.11	15.56	23.21	1.373766667	317.4763943	487.6221388	53562	19.76768519	17.1784577
2009	182	22.78	13.89	20.33	0.00705	384.479247	309.9693998	53529	20.55798611	16.95295642
2009	183	24.44	15	21.85	1.606516667	292.929466	338.1314988	53491	21.29869464	17.06240763
2009	184	22.22	15.56	20.39	0.00525	508.6422429	242.0939926	53451	20.87430556	16.98831817
2009	185	22.22	15	20.24	0	843.0129499	313.2517086	53407	20.48412037	17.03938227
2009	186	23.33	11.11	19.97	0	777.5442578	469.425514	53359	19.91233796	16.51611964
2009	187	23.89	12.22	20.68	0	853.5576772	547.6865574	53308	19.45136574	16.29999873
2009	188	27.22	13.89	23.56	0	1176.476636	523.280993	53254	19.02326389	16.54125389
2009	189	26.11	11.67	22.14	0	808.670287	512.0840101	53196	18.62740741	16.05570914
2009	190	22.78	12.78	20.03	0	719.4379253	403.718453	53135	18.27268519	16.11414468
2009	191	26.11	13.89	22.75	0	704.8211986	450.6709691	53071	18.06652582	16.37592263
2009	192	26.11	16.67	23.51	1.671016667	447.6598914	412.1833069	53004	17.88375	16.95263985
2009	193	25.56	17.22	23.26	0.033116667	901.6685182	259.7328699	52933	17.70275463	17.46677048
2009	194	25	14.44	22.1	0.000566667	1029.287788	547.7308551	52860	17.76687646	16.76409421
2009	195	24.44	11.11	20.78	0.017533333	973.6450359	547.9027907	52783	18.93703963	15.99129279
2009	196	25	11.11	21.18	0.000616667	832.3341124	585.0799195	52703	18.65827506	15.95154951
2009	197	27.78	13.33	23.81	0.390866667	986.6266601	537.9431965	52620	18.30962963	17.65805117
2009	198	30	18.33	26.79	0.475958333	450.5324709	469.2875036	52535	17.9791784	17.11260424
2009	199	22.78	13.89	20.33	0.791058333	540.2532892	156.5801205	52446	17.64710648	16.79556086
2009	200	20.56	13.33	18.57	0.0065	532.8747459	291.0120141	52355	17.39344907	16.46485735
2009	201	23.89	14.44	21.29	0	675.0930108	439.14927	52261	17.32597222	16.49872351
2009	202	26.11	15.56	23.21	0.097	693.6484257	380.9887854	52164	17.19717593	17.23818584
2009	203	25	15.56	22.4	0.500133333	372.1661505	389.7421492	52065	17.22347222	17.30206311
2009	204	25	16.67	22.71	2.318016667	320.5875517	253.5307815	51963	17.15949074	18.10391324
2009	205	25.56	17.22	23.26	0.1648	532.685326	273.2542134	51858	16.85513889	18.24939646
2009	206	26.11	15	23.06	0.383116667	481.6771529	418.1852331	51751	16.50626761	17.86443013
2009	207	27.78	16.67	24.72	0.291816667	476.1631711	384.4510476	51642	16.17490741	18.26046599
2009	208	26.11	18.33	23.97	0	732.9878967	324.7343295	51530	15.84967593	18.38234737
2009	209	27.78	17.22	24.88	0	788.7211924	458.2545462	51417	15.61132867	18.44488622
2009	210	28.89	18.33	25.99	1.169833333	256.614042	470.5817154	51300	15.53809524	18.33304527
2009	211	22.78	18.33	21.56	0.069583333	508.5388685	163.5237584	51182	16.67594907	18.92111223
2009	212	27.78	19.44	25.49	1.46685	246.626154	365.4246602	51062	16.92433584	19.01213427
2009	213	22.22	16.67	20.69	0.0032	528.009103	122.565441	50939	16.83016317	19.1675374
2009	214	27.22	17.22	24.47	0.120166667	503.28073	506.6144249	50815	16.66839243	19.11019377
2009	215	25.56	14.44	22.5	0	667.5599216	272.2438644	50688	16.44907407	18.58394387
2009	216	25.56	15.56	22.81	0	624.4665166	507.4447785	50560	16.21527778	18.43062433
2009	217	28.33	16.67	25.12	0	756.4169314	494.616855	50430	15.93569444	18.73414943
2009	218	26.11	12.78	22.44	0	846.0942866	320.9862619	50298	15.64358796	17.7620063
2009	219	25	12.22	21.49	0	668.5008427	428.4242485	50164	15.3675	17.02655827
2009	220	24.44	13.89	21.54	0.027166667	634.6702583	421.8924624	50029	15.19085648	17.3456921
2009	221	26.11	16.11	23.36	0.42765	442.6475989	406.1789064	49892	15.11287037	18.521139
2009	222	29.44	20	26.85	0.216141667	806.3058002	245.3757889	49754	14.98805556	19.79586393
2009	223	32.22	20	28.86	0.231791667	614.5217081	433.2942315	49614	14.79372685	19.80562637
2009	224	27.78	18.33	25.18	1.749625	449.6914643	273.9751375	49472	14.62770833	19.39451487
2009	225	26.67	16.67	23.92	0.089208333	530.6079843	277.6136834	49330	14.80053241	19.1043639
2009	226	26.67	17.78	24.22	0	626.9497425	466.979425	49186	14.99449074	19.2003656
2009	227	28.89	17.78	25.83	0	794.0750932	471.8079119	49040	15.11456019	19.6118005
2009	228	30.56	19.44	27.5	0	901.5865104	517.4930666	48894	15.15863426	19.70703327
2009	229	31.11	20	28.06	0	1105.731535	512.0612768	48746	15.11421296	20.00755901
2009	230	32.78	20.56	29.42	0.431825	611.56991	520.5570508	48597	15.00530093	20.2415764
2009	231	30.56	20.56	27.81	0.015741667	676.9374703	353.0740618	48446	14.92391204	20.98747883
2009	232	29.44	20	26.85	0	749.152435	335.0939435	48295	14.73914352	20.52965485
2009	233	29.44	20.56	27	0.485283333	492.655685	360.8208255	48143	14.55486111	20.68413435
2009	234	26.67	18.89	24.53	0.001233333	559.8637232	286.8407377	47990	14.42810185	20.33386644
2009	235	26.67	17.78	24.22	0	846.3101499	300.8905427	47836	14.37050926	19.90870181
2009	236	25.56	14.44	22.5	0	576.5525923	432.6559426	47681	14.43090278	18.71164586
2009	237	25.56	14.44	22.5	0	667.7699726	383.9634929	47525	14.64884259	18.49436192
2009	238	27.22	16.11	24.17	0	897.3468059	508.4194604	47368	14.44986111	18.65333005
2009	239	28.89	17.22	25.68	0.02615	534.4074612	462.4241898	47210	14.2875463	18.88681579
2009	240	19.44	16.67	18.68	0.91275	219.3969411	128.512093	47052	14.59935185	18.41659058
2009	241	20	16.67	19.08	2.108033333	330.555097	72.7311539	46893	15.41953704	18.69921189
2009	242	26.11	14.44	22.9	0	761.1388359	320.4080541	46734	15.82071759	17.70273605
2009	243	22.22	11.11	19.17	0	540.8998917	480.1938247	46573	15.84048611	16.35215266
2009	244	18.89	7.78	15.83	3.33E-05	474.5543285	398.0785771	46413	15.87914352	15.19571253
2009	245	20.56	8.33	17.19	0	529.277754	538.6507319	46251	15.93020833	14.86966747
2009	246	23.33	10	19.67	0	586.9153305	521.0623576	46089	16.22831019	14.9963573
2009	247	23.89	10.56	20.22	0	627.404906	512.5118558	45927	16.34212963	15.44803263
2009	248	25	12.22	21.49	0	667.4029684	508.0795167	45764	16.39694444	15.8886812
2009	249	25.56	12.78	22.04	0	723.5662468	474.4047149	45600	16.44826389	15.99601293
2009	250	25	13.89	21.94	0.009341667	385.7817956	454.5401105	45437	16.51914352	16.37611647
2009	251	20	17.22	19.24	0.003408333	409.4359562	150.4898834	45272	16.58506944	16.6643653
2009	252	22.22	16.11	20.54	0.000916667	474.4212481	208.9722001	45108	16.88789352	16.72595863
2009	253	22.78	15	20.64	0.013333333	708.5729684	236.9511826	44943	18.03293981	16.38360603
2009	254	20	12.78	18.01	2.071841667	218.3804631	440.6224485	44778	17.93599537	15.04931047
2009	255	15	12.22	14.24	0.056508333	192.5441047	62.22258086	44613	17.96958333	15.2955757
2009	256	19.44	13.89	17.92	0	587.8569736	106.9569825	44447	18.01347222	16.03736277
2009	257	24.44	15	21.85	0	598.2023368	477.8696958	44281	18.02949074	16.50685607
2009	258	23.89	13.89	21.14	0.00035	456.242422	328.4017228	44115	18.51840278	16.27195733
2009	259	24.44	11.67	20.93	0	743.9274831	297.3866755	43949	20.66166667	15.8984923
2009	260	19.44	11.67	17.31	0.010241667	315.1932069	387.5532056	43783	21.49303241	15.31886033
2009	261	16.11	13.89	15.5	0.014991667	481.6589997	79.71882523	43617	22.41689815	15.6359254
2009	262	23.33	10	19.67	0	668.9773209	431.1204143	43450	22.14805556	14.8548639
2009	263	20	5.56	16.03	0	394.0091204	511.4600545	43284	21.97726852	14.08279767
2009	264	23.33	6.11	18.6	0	470.319669	419.366955	43117	21.86224537	14.91440467
2009	265	23.89	14.44	21.29	0.077166667	413.0755619	425.1073549	42951	21.78340278	15.960007
2009	266	23.33	18.33	21.96	0.454383333	323.0048201	146.6952599	42784	21.83331019	17.07598717
2009	267	26.11	17.78	23.82	0	550.8505766	287.909733	42618	23.576875	17.53127967
2009	268	22.78	13.33	20.18	0	766.0699265	209.8487704	42452	22.6194213	16.59682817
2009	269	20	12.22	17.86	2.91225	393.1857879	423.0745637	42286	22.30222222	14.78196333
2009	270	14.44	11.67	13.68	1.75345	97.59836475	66.51524217	42120	22.1269213	14.42063983
2009	271	16.67	12.22	15.44	0.7834	392.4936873	144.1699004	41954	22.81513889	13.91818233
2009	272	20	11.11	17.56	0.0036	614.0463142	258.0364698	41788	22.69587963	13.34449133
2009	273	13.89	10.56	12.97	0.002233333	474.1497003	80.00398818	41623	22.41342593	13.06155933
2009	274	13.33	6.67	11.5	0	425.1628331	226.9404458	41458	22.25689815	11.99129267
2009	275	12.78	3.89	10.33	0.634591667	132.6601074	243.7642458	41293	22.13849537	11.18761613
2009	276	15	5	12.25	0.372508333	279.36355	215.6805174	41129	22.00659722	12.5127135
2009	277	18.89	7.78	15.83	0	395.4028318	364.3781369	40964	21.90622685	12.11972083
2009	278	15.56	7.78	13.42	0	431.4231722	216.5545207	40801	21.80993056	11.86395983
2009	279	15.56	4.44	12.5	0	370.5361453	299.5252848	40637	21.71039352	11.29502767
2009	280	17.78	5	14.26	0.267583333	564.702324	375.2800316	40474	21.63766204	12.1496414
2009	281	13.33	7.78	11.81	0	466.8655743	216.561148	40312	21.56282407	11.98804853
2009	282	18.33	8.33	15.58	1.115225	171.0742548	346.520797	40150	21.53273148	12.58137183
2009	283	17.78	11.67	16.1	0.475775	390.5188521	98.41761484	39989	21.51532407	12.90519267
2009	284	14.44	5	11.85	0	373.7990604	209.3787285	39828	21.50166667	10.98520655
2009	285	12.78	3.89	10.33	0	340.3996733	336.8411526	39667	21.483125	9.909569983
2009	286	9.44	3.89	7.92	0.005983333	283.6007623	134.8980966	39508	21.445	10.10350045
2009	287	13.33	0	9.67	3.33E-05	252.7312396	155.3075809	39349	21.41354167	8.940656483
2009	288	7.22	0.56	5.39	2.513708333	65.32204503	143.7659156	39191	21.4218287	7.809564817
2009	289	3.89	-0.56	2.67	1.276416667	39.74306619	41.64829759	39033	21.41006944	6.53886945
2009	290	1.67	0	1.21	0.679866667	44.46893486	105.1623624	38876	21.41011574	6.80197175
2009	291	3.89	0	2.82	0.185891667	193.5736985	86.93755165	38720	21.38131944	7.369737967
2009	292	10	-1.11	6.94	0	279.1027575	257.0438221	38565	21.33583333	7.149981483
2009	293	12.78	0	9.26	0	396.3782907	402.2132462	38411	21.43840278	8.152777783
2009	294	19.44	6.67	15.93	3.33E-05	513.2498888	342.0583407	38258	22.18159722	9.0647486
2009	295	21.11	7.78	17.44	0	743.1655047	279.9480397	38106	22.21032407	9.892166667
2009	296	21.67	8.33	18	0.837983333	421.5513789	314.7272296	37955	22.14166667	10.68388063
2009	297	17.22	11.11	15.54	7.42895	347.2655167	117.1349064	37804	22.06108796	11.86467267
2009	298	18.33	6.67	15.12	0	724.291248	136.2429425	37655	22.30988426	11.15617417
2009	299	15	2.78	11.64	0	419.3229011	365.9718719	37507	22.42229167	10.02796438
2009	300	15.56	3.33	12.19	0.064833333	201.9614038	343.4797248	37361	22.37516204	9.9535611
2009	301	13.33	7.78	11.81	1.282408333	131.5099396	136.5894397	37215	22.74398148	10.89745883
2009	302	15	11.11	13.93	4.17E-05	246.9586021	83.21016428	37071	22.53224537	11.37666567
2009	303	13.33	10	12.42	0.013566667	246.492101	79.03531196	36928	22.31391204	11.32808183
2009	304	14.44	11.11	13.53	0.110216667	391.4013184	58.89743659	36787	22.19377315	11.50586767
2009	305	16.67	5.56	13.61	0	645.7503674	58.59573771	36647	22.09493056	10.54589233
2009	306	11.67	-0.56	8.31	3.33E-05	308.9746219	300.2259717	36509	22.04886574	9.026255917
2009	307	12.78	0	9.26	0.032983333	442.227101	341.7961344	36372	22.95256944	8.666372033
2009	308	12.22	-1.11	8.56	0.001616667	384.6979668	277.2042388	36237	22.58247685	7.779666617
2009	309	7.78	-1.11	5.33	0.077083333	213.3716827	194.7745617	36103	22.29981481	7.355397917
2009	310	7.22	0.56	5.39	0	391.6988879	113.8939145	35971	22.12803241	6.804435883
2009	311	7.78	-2.22	5.03	0	335.0895566	336.1670712	35841	22.04532407	6.170619217
2009	312	13.33	-2.22	9.06	0	394.3304765	306.7477949	35713	21.97458333	7.446088667
2009	313	21.11	5.56	16.83	0	457.0171514	315.5840499	35586	22.11849537	8.1939956
2009	314	19.44	5.56	15.62	0	543.8915295	189.9116237	35462	22.46016204	8.974313883
2009	315	14.44	5.56	12	0.015083333	742.7692553	138.9815218	35339	22.26666667	8.74380695
2009	316	10.56	2.22	8.26	0	635.896958	173.1909481	35219	22.08402778	8.0766905
2009	317	10	2.78	8.01	6.67E-05	609.4263692	186.6418803	35100	22.09625	8.592113667
2009	318	15.56	5	12.65	0.003733333	362.9603322	271.4951978	34984	22.66490741	9.749885183
2009	319	14.44	4.44	11.69	1.67E-05	298.1035457	133.4935475	34870	22.80898148	9.837582867
2009	320	19.44	5.56	15.62	0	734.7430277	276.6466239	34759	22.67081019	9.799887967
2009	321	12.78	5.56	10.79	0	794.3924701	289.2625473	34649	22.34618056	9.10501165
2009	322	8.89	2.78	7.21	0	365.799792	100.9619594	34542	22.42328849	8.145310883
2009	323	10	4.44	8.47	1.212533333	110.5722992	173.5931529	34438	22.32472631	8.815306467
2009	324	11.11	6.11	9.74	0.043433333	439.1936874	54.9111137	34336	22.25063012	8.90845925
2009	325	10	5	8.62	0	315.3315028	191.1826679	34237	22.17993765	8.56904445
2009	326	10.56	5	9.03	0	191.8939447	116.415993	34140	22.11763809	7.691278233
2009	327	8.33	3.89	7.11	0.046891667	215.7106532	80.56611643	34046	22.15363889	7.662626617
2009	328	9.44	4.44	8.07	0.679641667	79.92162581	92.74624492	33954	21.65531136	8.287681933
2009	329	9.44	6.67	8.68	0.029666667	100.914755	76.33266403	33866	21.64104167	8.597900933
2009	330	10.56	2.22	8.26	0.4603	98.29357923	92.60408526	33780	22.82256944	8.127690283
2009	331	10	2.22	7.86	0.246758333	323.7376413	140.3104727	33697	22.71280093	7.186889117
2009	332	5.56	1.67	4.49	0.036091667	219.0044832	100.8761378	33618	22.35740741	6.3154757
2009	333	5	0	3.62	0	273.8465278	97.60299335	33541	22.12199074	6.061325467
2009	334	16.11	0.56	11.83	0.126091667	443.3355542	253.7934981	33467	21.95680556	7.146477767
2009	335	11.11	-0.56	7.9	0.000958333	346.3394737	63.40611432	33397	21.82525463	5.903040033
2009	336	6.11	-2.22	3.82	0.656725	74.259888	119.4484083	33329	21.72409722	5.09524305
2009	337	12.78	-1.67	8.81	0.898241667	269.6985342	68.63177514	33265	21.68444444	6.534470833
2009	338	11.67	2.78	9.22	0.00245	404.3970804	58.21304662	33204	21.61481481	6.068719917
2009	339	5	-1.11	3.32	0.464875	103.075495	140.8872262	33146	21.53416667	4.86336525
2009	340	0.56	-3.89	-0.67	0.001691667	169.5391919	39.108425	33092	21.45712963	4.09177895
2009	341	0.56	-5.56	-1.12	0.002908333	114.5965167	283.8162586	33041	21.39634259	3.546908383
2009	342	1.11	-5.56	-0.72	0.000591667	191.6584817	88.95050465	32993	21.3343287	3.82000145
2009	343	3.33	-1.11	2.11	3.267383333	93.08141013	218.1263771	32949	21.29974537	3.383344317
2009	344	6.11	-3.33	3.51	0.002883333	362.2057389	154.7091677	32909	21.25662037	2.942909783
2009	345	-2.22	-10	-4.36	1.67E-05	241.5653984	166.6408798	32872	21.20701389	2.353698067
2009	346	-2.78	-9.44	-4.61	0	243.8525446	204.1721177	32838	21.171875	1.979540217
2009	347	2.22	-5.56	0.08	1.664683333	137.7923547	275.3377835	32808	21.11576389	2.006717217
2009	348	5	-0.56	3.47	0.000416667	126.5436996	51.09499115	32782	21.0725463	2.538182533
2009	349	7.78	2.78	6.4	0.1445	169.7839001	131.1490583	32759	21.01719907	2.910699933
2009	350	7.78	-3.89	4.57	0.01185	351.5186021	52.82345754	32740	20.99108796	2.349318667
2009	351	-1.11	-7.22	-2.79	0.001183333	194.6349855	233.9156582	32724	20.98821759	1.7363368
2009	352	-1.67	-6.67	-3.04	0	190.6060358	212.0011005	32712	21.54104167	1.400756217
2009	353	0	-6.67	-1.83	0.758841667	69.38089985	178.18591	32704	22.6512963	1.064801183
2009	354	-4.44	-7.22	-5.21	0.020958333	141.3702265	62.00299703	32699	22.53863426	1.144172367
2009	355	0	-6.11	-1.68	0.001766667	163.3830332	250.2578751	32698	22.31400463	1.121802233
2009	356	0.56	-3.33	-0.51	0.00515	181.8306143	200.249656	32701	22.13523148	1.189809383
2009	357	1.11	-9.44	-1.79	0	198.3102232	114.6239031	32707	22.03641204	0.652684333
2009	358	-1.67	-9.44	-3.81	0	130.5850733	276.4927713	32717	21.96388889	0.470407783
2009	359	0	-5.56	-1.53	0.436566667	66.77951248	271.6298005	32731	21.97578704	0.812317743
2009	360	6.11	-1.67	3.97	2.204083333	54.83178188	43.00454976	32749	23.29541667	1.470252667
2009	361	6.67	-2.78	4.07	0.003083333	160.2968077	50.7335978	32770	22.58803241	2.01228632
2009	362	5	-2.78	2.86	0.011341667	256.0515326	196.5332378	32794	22.28511574	1.5599052
2009	363	-2.22	-7.78	-3.75	0.049575	202.1849359	131.618122	32822	22.10400463	0.803181533
2009	364	-4.44	-9.44	-5.82	0	146.7228171	227.6367566	32854	21.93398148	0.490637362
2009	365	-1.67	-9.44	-3.81	0.426108333	66.96507975	174.9951656	32889	21.7987037	0.527598248
2010	1	0	-3.89	-1.07	0.021008333	111.5198336	85.07561953	32928	21.64946759	0.92637268
2010	2	2.78	-7.78	-0.12	0.079366667	216.0043044	110.3866428	32971	21.53104167	0.594004628
2010	3	-6.67	-11.11	-7.89	0.004641667	118.5879497	178.9096526	33017	21.44645833	0.289720833
2010	4	-6.11	-10.56	-7.33	0.005375	120.014054	82.91417166	33066	21.36831019	0.18940162
2010	5	-3.89	-7.78	-4.96	0.004258333	132.4565973	107.471542	33119	21.31168981	0.155303472
2010	6	-2.78	-7.78	-4.15	0.024658333	121.4258647	86.79933685	33175	21.27157407	0.176428935
2010	7	-1.11	-3.89	-1.87	0.000208333	165.2800878	66.69669615	33234	21.25953704	0.16021875
2010	8	-1.67	-6.11	-2.89	0.136158333	125.2094245	84.95921432	33296	21.26159722	0.059362269
2010	9	-4.44	-8.89	-5.67	0.005166667	176.6695034	209.6644086	33362	21.27675926	-0.088073148
2010	10	-2.78	-13.33	-5.68	0	146.0890171	292.5369268	33431	21.28326389	-0.21884375
2010	11	-4.44	-13.33	-6.89	0.016116667	127.458138	261.7366803	33503	21.27666667	-0.246042823
2010	12	-2.22	-9.44	-4.21	0.00085	147.7534395	156.5544537	33579	21.28983796	-0.301344443
2010	13	-2.22	-6.67	-3.44	0	169.3752225	206.6843747	33657	21.28331019	-0.251347917
2010	14	0	-7.78	-2.14	0	186.0429463	176.3264865	33738	21.28923611	-0.289144677
2010	15	7.22	-7.22	3.25	0	245.8080478	288.1660458	33822	21.28377315	-0.038535185
2010	16	5.56	2.22	4.64	0	241.7271257	59.95647173	33909	21.28703704	0.17089074
2010	17	9.44	-1.67	6.39	1.630925	67.46757635	170.790435	33999	21.28168981	0.242331018
2010	18	3.89	-1.11	2.51	0.043708333	129.5067224	26.47219289	34092	21.27907407	0.818392362
2010	19	6.11	2.22	5.04	0.014733333	179.3813113	203.5951093	34187	21.27622685	1.225505317
2010	20	4.44	-2.22	2.61	0	253.3243194	45.43497156	34285	21.27895833	1.257709493
2010	21	1.67	-7.22	-0.78	0	178.2963888	164.4032455	34386	21.35365741	0.968598835
2010	22	3.33	-6.67	0.58	0.065466667	242.7984897	294.5434776	34489	21.42458333	1.256721302
2010	23	2.78	-4.44	0.79	0	267.359495	103.8670328	34595	21.59155093	1.18495602
2010	24	5	-5	2.25	1.057183333	142.2054918	298.4909374	34703	21.76611111	1.45863658
2010	25	13.33	1.67	10.12	4.141916667	284.4608514	68.47710691	34814	21.87384259	3.596964583
2010	26	11.67	-1.67	8	0.027716667	387.2378933	77.96546985	34926	21.99851852	2.875362967
2010	27	0.56	-3.89	-0.67	0.003583333	234.7107231	176.6892301	35042	22.08421296	1.93263495
2010	28	0.56	-3.89	-0.67	0.068183333	202.1964405	229.6415143	35159	22.03208333	1.267060183
2010	29	1.67	-13.33	-2.46	0	232.2756603	193.8167697	35278	21.95777778	0.498521067
2010	30	-7.22	-13.33	-8.9	0	153.0169118	276.4918644	35400	21.9312963	0.007672917
2010	31	-8.33	-13.89	-9.86	0	155.742414	142.3351068	35523	22.02638889	-0.363520138
2010	32	-2.22	-13.33	-5.28	0	191.5766279	338.7432467	35649	22.22793981	-0.440102547
2010	33	-1.11	-7.78	-2.94	0.048866667	149.8203472	258.1529517	35776	22.76627315	-0.294845138
2010	34	1.67	-6.67	-0.62	0.1417	138.2543235	170.4110291	35905	23.09215278	-0.106673618
2010	35	1.11	-4.44	-0.42	0	282.8756916	113.4632035	36036	22.70981481	-0.175012268
2010	36	3.33	-4.44	1.19	0.297025	169.1546818	336.3579861	36169	22.44349537	-0.127424768
2010	37	1.11	-5.56	-0.72	1.478475	179.3266347	68.67597719	36303	22.26122685	-0.240351852
2010	38	-2.22	-15.56	-5.89	1.67E-05	140.014984	205.5920143	36440	22.12787037	-0.277269675
2010	39	-2.22	-14.44	-5.58	1.67E-05	135.2405321	369.5466277	36577	22.03787037	-0.224977547
2010	40	-1.67	-10.56	-4.11	0.08035	77.78833028	401.6545103	36716	21.99613426	-0.084850695
2010	41	-2.22	-8.89	-4.06	0.891358333	61.59693208	131.9910465	36857	22.18740741	-0.081497685
2010	42	-2.78	-9.44	-4.61	0.002291667	139.1377205	104.2889808	36999	23.30479167	-0.037870371
2010	43	-1.11	-5.56	-2.33	3.33E-05	209.4065999	229.4715828	37143	23.21696759	0.019525
2010	44	1.11	-7.78	-1.33	0.000233333	211.6857332	340.1720171	37287	22.72453704	0.025363194
2010	45	-3.33	-7.78	-4.56	0.014183333	137.1988201	192.6055619	37433	22.4762963	0.06123426
2010	46	-1.11	-9.44	-3.4	0.297308333	119.729269	126.4190948	37581	22.33555556	0.04281713
2010	47	0.56	-9.44	-2.19	0.084291667	165.7281876	221.9893451	37729	22.23219907	0.057592129
2010	48	-1.11	-6.67	-2.64	0.011191667	161.4629869	248.4792629	37879	22.14247685	0.150322685
2010	49	0.56	-5	-0.97	0.007591667	215.9663021	192.9330774	38029	22.07944444	0.302247916
2010	50	2.78	0	2.01	0.000183333	320.3520665	270.4695529	38181	22.03976852	0.355609722
2010	51	4.44	-3.89	2.15	0	334.1611361	301.7261178	38334	22.00337963	0.19868125
2010	52	5	-3.89	2.56	0	409.1621616	232.2372749	38487	22.03201389	0.253071296
2010	53	7.22	-3.33	4.32	0.125525	253.520992	407.1309456	38642	22.04731481	0.242777314
2010	54	4.44	-2.22	2.61	0.041291667	75.61425035	137.8104026	38798	22.1019213	0.372121296
2010	55	3.33	-0.56	2.26	0	263.6064599	104.6039945	38954	23.13391204	0.512010416
2010	56	2.78	-2.22	1.4	0.043733333	207.1322165	208.8667638	39111	22.72314815	0.37173588
2010	57	0.56	-6.67	-1.43	0.315566667	120.0686571	222.8887927	39269	22.89298611	0.236916203
2010	58	-2.22	-5.56	-3.14	0.068416667	119.7091058	132.2950695	39428	23.07800926	0.348967823
2010	59	1.67	-3.89	0.14	0.043183333	187.3356345	272.2746861	39587	22.62118056	0.483394675
2010	60	4.44	-1.11	2.92	0.008058333	233.5345711	251.1958638	39747	22.43520833	0.608025927
2010	61	3.89	0	2.82	0.000425	243.5892452	165.3150575	39907	22.32930556	0.591316898
2010	62	3.33	-0.56	2.26	0.048066667	207.0671659	182.1579814	40068	22.27032407	0.722790047
2010	63	4.44	-2.78	2.46	0	394.4714723	115.5337808	40230	22.22155093	0.793963193
2010	64	5	-2.78	2.86	0	426.5389723	439.5047534	40392	22.18356481	1.002290745
2010	65	7.22	-5	3.86	0	483.723969	419.4639872	40555	22.10793981	1.166994902
2010	66	9.44	-4.44	5.62	0	602.7230652	467.4409352	40718	22.07291667	1.905190038
2010	67	10.56	-1.11	7.35	0	646.133554	460.0942958	40882	22.05553241	2.701254867
2010	68	11.67	-0.56	8.31	0	594.5900011	461.4164596	41046	22.03252315	3.317930083
2010	69	15.56	1.11	11.58	0.000808333	679.1629471	454.4945402	41210	22.00425926	4.066266433
2010	70	15.56	2.22	11.89	0.002408333	541.3981871	261.2535589	41375	21.92395833	5.692212967
2010	71	18.89	3.89	14.76	0.818983333	178.3883097	421.2968946	41540	21.87715278	6.418776167
2010	72	10	5	8.62	2.895616667	123.9284277	64.10411222	41705	21.84122685	5.990235883
2010	73	8.33	5	7.42	0.880633333	103.5372274	55.12892286	41870	21.79844907	5.646140983
2010	74	6.67	4.44	6.06	0.045566667	196.7819722	65.61390237	42036	21.72428241	5.535346283
2010	75	6.67	4.44	6.06	1.67E-05	528.4148953	78.1147339	42202	21.68837963	6.312006717
2010	76	15.56	-0.56	11.13	0	786.6147442	476.9151246	42368	21.73821759	6.221790283
2010	77	17.78	0	12.89	0	884.5385146	492.73607	42534	22.10914352	6.329203717
2010	78	18.89	1.67	14.15	0	912.8883794	470.4246036	42701	21.98655093	6.91437825
2010	79	20	6.11	16.18	0	1037.163672	467.6267992	42867	21.91127315	7.655270133
2010	80	21.11	6.67	17.14	0	1167.51575	434.3761299	43033	21.863125	8.846329867
2010	81	22.78	7.78	18.65	0.3143	561.2853258	416.7556944	43200	21.81773148	9.5929088
2010	82	18.33	7.78	15.43	0.246025	335.6198265	124.479454	43366	21.77770833	8.540825
2010	83	8.33	2.78	6.81	0.000108333	570.5693522	48.67755496	43533	21.74847222	7.780382633
2010	84	15.56	2.78	12.04	0.200816667	517.5675446	503.9315774	43699	21.70180556	7.632457867
2010	85	18.33	-1.11	12.99	1.101366667	733.2761299	231.4165508	43865	22.43530093	7.175300467
2010	86	5	-5.56	2.1	0	443.5347271	467.6842978	44032	23.215	5.66445625
2010	87	8.89	-5.56	4.92	2.144625	172.9833566	470.2192181	44198	23.27587963	5.1613338
2010	88	7.22	2.78	6	0.182625	186.4774684	150.5477538	44363	22.81784722	6.515086117
2010	89	14.44	1.67	10.93	0.001841667	690.6611826	225.4681668	44529	22.58907407	6.37096065
2010	90	10	1.67	7.71	0.000325	707.0691914	266.377738	44695	22.45053241	7.4080456
2010	91	20	5	15.88	0	1108.768058	511.437004	44860	22.34564815	8.61501945
2010	92	26.67	6.67	21.17	0	1343.450028	507.3818101	45025	22.24759259	10.08159885
2010	93	28.33	10	23.29	0	1371.97667	462.4367559	45190	22.83268519	11.12394168
2010	94	25.56	12.22	21.89	0	1784.308152	435.8771001	45354	23.01888889	11.26383283
2010	95	21.11	7.22	17.29	0.001283333	1113.620212	465.9983303	45518	22.76571759	11.094076
2010	96	26.67	8.33	21.63	0.1036	1268.346143	406.7829076	45681	22.55615741	12.56240683
2010	97	30	15.56	26.03	0	2277.840818	446.655186	45845	22.384375	13.071631
2010	98	29.44	12.22	24.71	0.188058333	1355.85076	379.7380833	46007	22.42013889	12.91867083
2010	99	28.89	4.44	22.17	0.03315	1122.008326	372.5798913	46169	22.40578704	10.634214
2010	100	7.22	3.89	6.31	0.008375	562.5312808	179.55233	46331	22.19458333	9.70663025
2010	101	16.67	5.56	13.61	0	923.1641868	548.0731954	46492	22.26590278	10.01521435
2010	102	21.11	2.78	16.07	0	1318.838169	437.8569009	46653	23.43777778	10.36474623
2010	103	18.89	4.44	14.92	0.001133333	845.7859205	518.1982569	46813	22.8100463	9.720175783
2010	104	13.33	0	9.67	0	506.9135009	221.6722941	46972	22.54675926	9.382454883
2010	105	18.33	2.78	14.06	0	837.0168582	526.7408075	47131	22.38326389	10.10790603
2010	106	25.56	7.78	20.67	0.412966667	874.0810633	461.4455159	47289	22.16877315	11.46911333
2010	107	25.56	6.11	20.21	0.19925	825.0047669	318.0201281	47446	21.99479167	10.04997733
2010	108	7.22	1.67	5.69	0.023616667	312.1296568	170.5551657	47602	22.29780093	8.635825383
2010	109	9.44	1.67	7.31	0	517.9129054	200.2423678	47758	22.39303241	9.116297917
2010	110	17.22	2.22	13.1	0	745.8473127	558.1331817	47912	22.17212963	9.659733783
2010	111	18.33	5	14.67	0.06255	608.2405161	482.3339367	48066	21.90185185	10.02811573
2010	112	20	4.44	15.72	0.056466667	751.3825465	396.1591281	48219	21.71203704	10.1299379
2010	113	20	3.33	15.42	0	1116.214058	385.3875336	48370	23.00444444	10.42650595
2010	114	19.44	3.89	15.17	0.070741667	757.695633	564.1263783	48521	22.98569444	9.822957
2010	115	16.67	6.11	13.76	1.24475	125.4044897	259.9680097	48671	22.62324074	9.73835595
2010	116	11.67	7.78	10.6	1.029241667	100.9510084	107.3452959	48819	22.2372028	9.851438883
2010	117	12.22	5.56	10.39	0.198733333	599.0647484	107.8803864	48966	21.83342593	9.65232455
2010	118	11.11	1.67	8.51	0	629.9726654	455.3688101	49112	21.51127315	8.843117583
2010	119	12.78	2.78	10.03	0	801.9290074	399.0018881	49257	21.3030787	9.58786875
2010	120	19.44	6.67	15.93	0	905.2578058	546.7403494	49401	20.92032407	11.13152448
2010	121	27.78	10	22.89	0	1358.744456	521.5866621	49543	20.46763889	12.79629167
2010	122	30.56	15.56	26.43	0.23245	594.7040993	450.8251716	49683	20.22074074	13.8604185
2010	123	23.89	17.78	22.21	1.59415	641.6816102	146.5390482	49823	19.95784722	14.67517317
2010	124	25	12.78	21.64	0.37015	871.2859522	270.4929544	49960	19.55657407	13.82927083
2010	125	22.22	8.89	18.56	0	858.2302341	442.5669115	50096	19.23377315	13.44962917
2010	126	26.67	11.11	22.39	0.27015	1221.65997	569.4504788	50231	19.00043981	13.72862267
2010	127	21.11	6.11	16.99	0	743.1969638	560.3188452	50363	18.823125	12.830563
2010	128	20.56	8.33	17.19	0.721991667	641.877035	446.5041489	50495	18.56125	12.707844
2010	129	16.11	2.78	12.44	0.037625	632.339722	343.873558	50624	18.24479167	10.5355912
2010	130	8.33	2.22	6.65	0	538.1930523	221.9358042	50751	19.6194213	9.9008708
2010	131	15	1.67	11.33	1.692641667	284.1894484	601.7866816	50877	21.32574074	8.792662983
2010	132	9.44	3.33	7.76	1.605108333	95.03821326	84.61235294	51000	20.93534722	9.183681483
2010	133	16.11	6.67	13.51	0.000833333	325.1761622	124.2531591	51122	20.44361111	9.86635185
2010	134	14.44	7.78	12.61	0.162083333	322.4562471	204.1767335	51241	20.13402778	11.44850783
2010	135	27.22	11.11	22.79	0.132266667	1337.088583	332.1215001	51358	19.96324074	12.31841717
2010	136	21.11	10.56	18.21	0.002566667	900.2163436	517.0892312	51473	19.69513889	12.3638995
2010	137	19.44	8.89	16.54	0.335833333	439.1544302	545.8230915	51586	19.5218287	11.7624615
2010	138	15.56	8.33	13.57	0.513241667	179.6434306	138.9265141	51697	19.21476852	11.04528517
2010	139	11.67	8.33	10.75	0.000191667	250.5843739	92.26130682	51805	18.79166667	11.14847183
2010	140	17.78	10	15.64	0	659.6935837	253.1652475	51910	18.38608796	12.4991945
2010	141	27.22	13.33	23.4	0	1003.374627	550.5801323	52014	18.02993056	13.42532817
2010	142	27.78	15.56	24.42	0.303733333	781.8861175	410.6865142	52114	17.69092593	13.93557183
2010	143	22.22	15	20.24	1.86885	266.716222	299.7104497	52212	17.450625	14.43563183
2010	144	22.22	13.89	19.93	0.00325	399.917488	255.3545538	52308	17.2669213	14.68767917
2010	145	23.33	15	21.04	0.00005	644.1077855	286.6230725	52400	16.9505787	15.460898
2010	146	26.67	16.11	23.76	0	895.8815694	439.6306725	52490	16.63590278	16.12501333
2010	147	30	17.78	26.64	3.33E-05	1313.359499	547.7983339	52577	16.3075	17.06771017
2010	148	30.56	18.89	27.35	0.036416667	664.1662989	479.0819376	52662	16.3569213	16.95996767
2010	149	26.11	17.78	23.82	0.000433333	684.3608582	289.6928502	52743	16.41006944	16.9942495
2010	150	26.11	13.33	22.6	0	956.8020012	354.3647792	52821	16.24384259	16.84656517
2010	151	30	16.11	26.18	0.123666667	789.0704057	569.5046317	52896	15.96833333	17.062201
2010	152	30.56	17.78	27.04	0.306483333	503.5565497	397.5129038	52969	15.67543981	17.26933533
2010	153	26.11	14.44	22.9	0	795.9966503	256.7324937	53038	15.39270833	17.1632365
2010	154	28.33	16.11	24.97	0.000383333	918.3023758	527.5724912	53103	15.12826389	17.65288233
2010	155	27.78	18.89	25.33	0.001325	670.8221589	376.3463868	53166	14.9068287	17.8154805
2010	156	28.33	18.89	25.74	0.226383333	534.0558894	354.1336778	53225	14.71055556	18.02828667
2010	157	27.78	18.89	25.33	0.106141667	791.4485343	293.8819467	53281	14.55581019	17.88666383
2010	158	25.56	12.78	22.04	0.0003	1096.404058	343.5280309	53334	14.42793981	16.45915267
2010	159	21.11	10	18.06	0	920.4562131	410.4082198	53383	14.28872685	15.402011
2010	160	22.22	11.67	19.32	3.927258333	255.7260075	585.2579124	53429	15.246875	14.35362217
2010	161	17.22	12.22	15.85	0.003291667	513.1863292	72.04826916	53471	20.1812963	15.3636005
2010	162	25.56	12.78	22.04	0	685.5874432	487.6168193	53510	19.06587963	15.7367575
2010	163	25.56	13.89	22.35	0.019616667	570.430018	467.1209801	53546	18.34719907	17.05977
2010	164	31.11	19.44	27.9	0.528716667	730.595471	471.5924371	53577	18.22766204	18.25282
2010	165	28.33	16.67	25.12	0.008216667	625.1153143	296.6134574	53606	18.31944444	17.960694
2010	166	25	18.33	23.17	0.003133333	529.8318543	218.7056312	53630	18.21923611	17.5981745
2010	167	23.33	17.78	21.81	0.119383333	485.7824635	255.665188	53651	17.90960648	17.85777867
2010	168	28.33	17.22	25.28	0	1173.624179	428.3863683	53669	17.77800926	17.73842883
2010	169	23.33	11.67	20.12	0	676.6384707	434.4317648	53682	17.42909722	16.98668783
2010	170	27.22	13.89	23.56	0	778.92801	574.6877247	53693	16.98821759	17.60195883
2010	171	31.11	17.78	27.44	0.041833333	1104.615981	503.0047114	53699	16.66083333	18.483505
2010	172	28.89	16.11	25.38	0	1056.244733	418.5089568	53702	16.51349537	18.469874
2010	173	29.44	18.89	26.54	0.345633333	654.9866769	523.446677	53701	16.37604167	18.414363
2010	174	27.78	20.56	25.79	0.011108333	875.979023	289.275514	53696	16.14652778	19.31296767
2010	175	31.67	20.56	28.61	0.035641667	1198.900125	496.9816905	53688	15.7274537	19.47840967
2010	176	28.33	16.67	25.12	0	1026.932597	378.4889336	53676	15.34101852	18.99715933
2010	177	27.22	17.22	24.47	0	950.2680028	495.7837908	53661	15.0649537	18.28036817
2010	178	30	19.44	27.1	1.03355	899.8804639	446.1037453	53641	14.70641204	19.30827503
2010	179	31.67	21.11	28.76	0.1209	968.1793801	452.7681046	53619	14.42009259	19.7894444
2010	180	26.67	19.44	24.68	0.017883333	1134.858296	228.4517279	53592	14.26064815	19.38931875
2010	181	25	8.89	20.57	0	1057.861714	488.4842612	53562	14.16506944	17.33210468
2010	182	22.22	10	18.86	0	983.406447	539.4237142	53529	14.00027778	16.28866745
2010	183	22.22	10	18.86	0	883.5957742	474.1217962	53491	13.85986111	15.96549992
2010	184	25	12.22	21.49	0	1060.72511	574.5579877	53451	13.74342593	16.36598365
2010	185	30	13.33	25.42	0	1367.643937	574.7227143	53407	13.65893519	17.21038662
2010	186	32.78	18.33	28.81	0	1530.310727	565.443018	53359	13.61819444	18.43653382
2010	187	34.44	20.56	30.62	0	1773.996979	475.057271	53308	13.56928241	19.31952563
2010	188	33.89	21.11	30.38	0	1710.002764	492.9856537	53254	13.53715278	20.02090323
2010	189	33.89	21.11	30.38	0	1870.65705	496.0998383	53196	13.45800926	20.17848253
2010	190	34.44	22.22	31.08	2.081583333	1197.390857	476.904338	53135	13.34986111	20.4236936
2010	191	32.78	18.33	28.81	1.728766667	1312.467067	392.8769196	53071	13.26356481	20.20084825
2010	192	27.78	14.44	24.11	0	1133.416809	525.5413365	53004	13.20009259	19.30888973
2010	193	30	17.22	26.49	0.73635	682.3568476	568.3926095	52933	13.15465278	18.846274
2010	194	27.78	19.44	25.49	0.059183333	456.26382	344.053689	52860	14.34446759	19.28224325
2010	195	25.56	19.44	23.88	1.139066667	524.0691574	206.5965368	52783	14.73543981	19.86386675
2010	196	28.33	18.33	25.58	0	848.8172994	312.7365805	52703	14.63969907	20.51307767
2010	197	30.56	20	27.65	0.48655	485.2050045	501.7411631	52620	14.8050463	20.27419867
2010	198	29.44	18.89	26.54	0.000166667	831.2836514	324.7284858	52535	15.10703704	20.522058
2010	199	30	18.89	26.94	0.0028	1335.872475	494.1107234	52446	14.92078704	21.09294767
2010	200	31.67	22.22	29.07	0.00055	1172.862153	516.2557922	52355	14.59826389	20.96582317
2010	201	30.56	18.33	27.19	0.4471	546.8714812	459.8963854	52261	14.26900463	20.39788183
2010	202	29.44	18.89	26.54	0.416091667	750.04759	326.6476689	52164	13.95331019	20.79341983
2010	203	31.11	18.89	27.75	0.344708333	979.5500502	417.1403822	52065	13.70113426	20.67530133
2010	204	29.44	20	26.85	0.001166667	1130.484838	516.7896773	51963	19.81532407	21.33849767
2010	205	33.89	22.22	30.68	0.002166667	1667.306151	440.4106213	51858	19.878125	22.2691565
2010	206	32.78	22.22	29.88	0.206216667	1058.341802	478.5279318	51751	19.93472222	21.73174067
2010	207	27.22	17.22	24.47	0	1104.311093	280.8925487	51642	19.60460648	20.38504533
2010	208	27.78	16.11	24.57	0	989.1303315	564.1301378	51530	19.01900463	19.73962867
2010	209	29.44	18.33	26.39	0	1062.703218	530.1708773	51417	18.40326389	20.15907417
2010	210	30.56	20	27.65	0.312433333	1242.692256	499.9139181	51300	17.87733796	20.830581
2010	211	28.89	14.44	24.92	0	1191.594979	458.6983705	51182	17.40104167	19.49659167
2010	212	25.56	13.33	22.19	0	1046.683227	492.6402217	51062	16.92300926	18.81577583
2010	213	26.67	15.56	23.61	0.0018	1014.72537	468.5463397	50939	16.44055556	19.33938283
2010	214	27.78	18.33	25.18	0	799.9971262	406.3037292	50815	15.94506944	19.10762783
2010	215	25.56	19.44	23.88	0.12175	482.7329491	319.319839	50688	15.48275463	19.502351
2010	216	28.33	21.67	26.5	0.1883	643.2302471	250.2314478	50560	15.07006944	20.543487
2010	217	32.22	20.56	29.01	0.015533333	1043.26288	360.6039064	50430	14.71854167	20.74403933
2010	218	28.33	18.33	25.58	0.19875	980.2004728	368.7530916	50298	14.41902778	20.11432783
2010	219	25.56	15	22.65	0	950.096899	392.7425644	50164	13.84143519	19.15767588
2010	220	26.67	13.89	23.15	0	1108.238357	462.3589718	50029	9.04474537	18.72209362
2010	221	29.44	15	25.47	0	1455.063619	506.9994989	49892	8.924375	19.1443672
2010	222	32.22	17.22	28.1	0	1413.836914	509.5128834	49754	8.705787037	20.39187183
2010	223	32.22	20	28.86	0	1543.52506	388.7245536	49614	8.544560185	20.70883933
2010	224	31.67	20	28.46	1.727325	407.2173777	505.668277	49472	8.397337963	20.33607783
2010	225	23.33	16.67	21.5	0.066308333	456.9723593	142.4630043	49330	8.379375	19.4029686
2010	226	21.67	17.22	20.44	0	729.8387913	171.2793884	49186	8.44275463	19.01914017
2010	227	24.44	19.44	23.07	0.923683333	306.2990266	208.9867047	49040	8.409421296	19.1863359
2010	228	27.22	19.44	25.08	0.000133333	894.7940435	221.0361394	48894	8.341643519	20.3943882
2010	229	30	16.67	26.33	0	1297.342299	449.2098429	48746	8.298009259	19.55582327
2010	230	27.78	17.78	25.03	0	866.6201794	506.3022615	48597	8.495486111	19.01600127
2010	231	25.56	14.44	22.5	0	779.0633917	270.5033852	48446	8.599513889	18.78472713
2010	232	30	16.11	26.18	0	1085.611031	468.7396625	48295	8.718773148	19.0944217
2010	233	29.44	16.67	25.93	0.0001	1022.523487	461.6193631	48143	8.825578704	19.338694
2010	234	28.33	17.22	25.28	5.16885	519.1962818	306.8267764	47990	8.79125	20.0564575
2010	235	26.11	17.22	23.67	0.204908333	405.6654593	253.2890919	47836	8.849861111	19.13735567
2010	236	20.56	15	19.03	0.027841667	371.05711	155.1791699	47681	8.922222222	18.59942135
2010	237	20.56	15	19.03	0.044958333	441.8330614	172.3907628	47525	8.924675926	18.5540616
2010	238	25	16.67	22.71	0.000158333	877.2703059	279.0671128	47368	8.843564815	18.49079867
2010	239	24.44	10.56	20.62	0	748.6583543	455.2917814	47210	8.640416667	17.46827048
2010	240	25	10.56	21.03	0	779.5339742	547.6961022	47052	8.621643519	17.00308023
2010	241	27.22	12.22	23.1	0	791.4642562	536.0757896	46893	8.890740741	17.81763608
2010	242	30.56	14.44	26.13	0	1024.022671	518.6078444	46734	8.966296296	18.23083208
2010	243	30.56	16.67	26.74	0	1047.837738	511.5565456	46573	9.167430556	18.858482
2010	244	32.22	18.33	28.4	0	1262.067289	488.2495637	46413	9.591111111	19.176745
2010	245	32.22	18.33	28.4	0	1320.47912	492.8001341	46251	10.07835648	19.42058567
2010	246	32.78	18.33	28.81	0.00065	1314.304528	503.9149906	46089	10.66724537	19.24038933
2010	247	31.67	15	27.08	0	1431.1609	400.319028	45927	11.39643519	17.8378315
2010	248	19.44	10.56	17	0	721.8798257	265.2846998	45764	12.14638889	16.02503833
2010	249	20	7.78	16.64	0	679.7199161	415.3873904	45600	12.84638889	15.42989667
2010	250	25.56	8.89	20.97	0	1107.261922	457.7717499	45437	13.42506944	16.72624633
2010	251	31.67	15	27.08	0	1890.012094	495.0344584	45272	13.76358796	17.63306667
2010	252	23.89	13.33	20.99	0.000183333	1038.530398	503.5719828	45108	13.92574074	16.47345883
2010	253	19.44	12.78	17.61	6.67E-05	777.2339625	231.0999266	44943	13.98724537	16.04587
2010	254	20	8.33	16.79	0	748.6275351	290.650163	44778	14.04358796	15.404432
2010	255	22.78	10	19.26	0.660916667	216.9822357	447.5443705	44613	14.0787037	15.72037367
2010	256	20.56	9.44	17.5	0.0016	619.4254481	139.7689383	44447	13.97043981	15.831157
2010	257	25	11.11	21.18	0	1061.000073	452.1078792	44281	13.87631944	15.475162
2010	258	22.78	11.11	19.57	0	990.0210669	500.4573501	44115	13.85104167	15.29362683
2010	259	23.89	10.56	20.22	2.125225	372.4080067	503.9175863	43949	13.79717593	14.41124117
2010	260	17.78	11.67	16.1	0.484125	375.0209321	84.36151018	43783	13.74273148	15.3171325
2010	261	17.78	8.89	15.33	0.005	375.7720653	239.2505674	43617	13.66513889	15.01316017
2010	262	22.78	8.89	18.96	0.0195	480.5608047	453.506214	43450	13.61645833	15.55488183
2010	263	26.11	11.67	22.14	3.33E-05	1081.792827	332.6857037	43284	13.53206019	15.49155033
2010	264	20.56	7.22	16.89	0	643.9765751	493.7118306	43117	13.46854167	14.45450183
2010	265	25	7.22	20.11	0.01325	635.0261859	480.9962981	42951	13.38474537	15.485618
2010	266	30.56	15	26.28	0.00045	782.4224953	375.1295812	42784	13.305625	16.52706667
2010	267	28.89	16.11	25.38	0	1217.707535	349.8233376	42618	13.31594907	17.43428883
2010	268	31.11	17.22	27.29	0	1751.510632	405.625106	42452	13.29053241	17.64784318
2010	269	25.56	10	21.28	0.000125	831.7510312	472.0965095	42286	13.29041667	16.39775938
2010	270	18.33	10	16.04	1.195225	164.7892971	268.5343305	42120	13.58694444	16.3030759
2010	271	20	13.33	18.17	1.661683333	426.1130836	99.07493922	41954	13.71960648	17.17121217
2010	272	22.78	12.22	19.88	0	487.310112	298.0669331	41788	13.73916667	15.9976159
2010	273	18.33	12.22	16.65	6.583841667	126.6738748	248.5008769	41623	13.71465278	15.71155092
2010	274	17.78	12.22	16.25	0.844658333	547.663525	17.46538666	41458	13.72266204	15.79209152
2010	275	18.33	5.56	14.82	0	426.5965178	271.3559683	41293	13.72784722	14.53689807
2010	276	16.67	5.56	13.61	0	575.8699083	458.080284	41129	13.69048611	14.00777527
2010	277	16.67	6.11	13.76	0.53855	278.6348763	337.7378674	40964	13.67511574	13.16021602
2010	278	9.44	6.67	8.68	0.212733333	133.5831472	101.3366339	40801	13.90453704	12.22036588
2010	279	11.11	7.78	10.19	0.127425	190.0250428	71.4293378	40637	14.21131944	11.97951245
2010	280	12.22	8.33	11.15	0.039575	463.5628944	85.42313584	40474	14.350625	12.52746153
2010	281	18.89	7.22	15.68	0	655.8766755	338.7311719	40312	14.46928241	12.59559202
2010	282	22.22	7.78	18.25	0	779.6958025	438.6341968	40150	14.56289352	12.95938407
2010	283	22.78	6.67	18.35	0	692.8307783	417.9222036	39989	14.66043981	13.22031737
2010	284	25	6.67	19.96	0.066072917	741.3670975	369.4599528	39828	14.77319444	14.03666288
2010	285	24.44	12.78	21.24	0.1991125	521.5284483	277.3587617	39667	14.84548611	14.40265307
2010	286	20.56	3.33	15.82	0.09274375	566.6405233	344.9811684	39508	14.88483796	13.40818554
2010	287	15.56	3.89	12.35	0.14305	231.1095259	441.6509441	39349	14.90141204	12.48151524
2010	288	12.22	6.11	10.54	0.1139375	468.0303829	77.99188589	39191	14.95793981	12.24523832
2010	289	13.89	6.11	11.75	0.114870833	761.6832293	307.2938539	39033	15.02648148	12.18860042
2010	290	16.11	6.67	13.51	0.122252083	685.4528063	422.1212059	38876	15.12488426	12.04300834
2010	291	19.44	5	15.47	0.162904167	555.0569026	392.1113378	38720	15.6012963	11.7922072
2010	292	11.67	5.56	9.99	0.1466625	282.4429187	124.3855309	38565	15.81199074	11.53524094
2010	293	13.33	2.78	10.43	0.1443875	414.7898982	271.7385645	38411	15.93828704	10.93046638
2010	294	15.56	3.33	12.19	0.1517625	699.3025205	347.0574259	38258	16.02252315	10.7302778
2010	295	13.33	3.33	10.58	0.159147917	490.3280585	282.2905054	38106	16.10016204	10.40743406
2010	296	10.56	3.33	8.57	0.166525	557.1833776	197.7326571	37955	16.23181609	10.2965939
2010	297	21.67	8.89	18.15	0.1739	1012.377238	300.9086076	37804	16.284375	11.25250118
2010	298	22.78	10	19.26	0.189858333	789.3058313	292.8822202	37655	16.32706019	12.05917473
2010	299	20.56	10.56	17.81	0.18865625	358.6443465	159.6884315	37507	16.55453704	12.63871772
2010	300	20.56	11.11	17.96	0.5158375	632.6654051	209.8228366	37361	16.97981481	13.3486386
2010	301	21.11	12.22	18.67	0.212004167	1297.96509	332.1233642	37215	18.92148318	12.82423333
2010	302	17.78	6.11	14.57	0.217233333	689.7388036	358.5730895	37071	19.10802575	11.80977778
2010	303	9.44	1.11	7.15	0.2224625	444.2267866	155.9733536	36928	17.13099537	10.70099482
2010	304	14.44	1.67	10.93	0.22984375	808.029403	259.3493354	36787	17.34287037	10.50486597
2010	305	10.56	0	7.65	0.232933333	472.1719969	293.7119819	36647	18.14069444	9.941037032
2010	306	8.89	-2.78	5.68	0.240304167	319.3909071	371.8125668	36509	18.02266204	8.970407247
2010	307	8.89	-3.33	5.53	0.247679167	312.2789986	367.1941878	36372	17.92962963	8.417784896
2010	308	11.67	-1.67	8	0.604264583	83.69635213	355.4632834	36237	17.84981481	8.722553301
2010	309	7.22	4.44	6.46	0.2888375	175.9257212	54.8098496	36103	17.82611111	8.858722728
2010	310	7.78	0	5.64	0.269820833	172.1142941	100.7224709	35971	17.77416667	8.423793521
2010	311	6.67	-1.67	4.38	0.277195833	210.7492259	146.9910438	35841	17.72287037	7.886447289
2010	312	7.22	-1.67	4.78	0.284570833	361.6596132	185.7458068	35713	17.68490741	7.829187946
2010	313	12.78	1.67	9.72	0.291952083	368.5225518	335.5141348	35586	17.63150463	8.149008484
2010	314	13.33	2.78	10.43	0.2993375	419.5066571	310.0616716	35462	17.57138889	8.619248341
2010	315	15.56	-0.56	11.13	0.25615	492.2783269	330.0317213	35339	17.53398148	8.298659873
2010	316	14.44	-1.67	10.01	0	481.0964535	337.9227122	35219	17.64064815	7.773909928
2010	317	15.56	-2.78	10.51	0	559.4893169	340.6536752	35100	17.906875	7.381788416
2010	318	16.11	-2.22	11.07	0	579.0470585	335.348102	34984	17.83398148	7.210595822
2010	319	16.11	1.11	11.99	0	372.2928587	248.0123315	34870	17.7175	7.926034503
2010	320	11.11	5.56	9.58	0.537322917	152.0840852	203.0266118	34759	17.5399537	8.220106238
2010	321	13.33	6.11	11.35	0.203147917	320.9556925	44.64180784	34649	17.30986111	8.635489766
2010	322	10	4.44	8.47	0	232.0091213	67.80163279	34542	17.33576389	8.393011816
2010	323	7.22	0.56	5.39	0.0064375	269.3813889	64.19658517	34438	17.14456019	7.490818883
2010	324	8.33	1.67	6.5	0	277.0268488	233.4916997	34336	16.92831019	6.770300967
2010	325	9.44	0	6.85	0	207.7341228	107.2860356	34237	19.045	6.267767417
2010	326	10	0.56	7.4	0	298.3917824	257.8959578	34140	21.38043981	6.275037567
2010	327	16.11	7.78	13.82	0	539.9005792	237.1552899	34046	21.36671296	5.522082883
2010	328	16.67	1.11	12.39	0	692.4428835	91.38558049	33954	21.34636574	5.367075917
2010	329	6.11	1.11	4.74	0.507597917	181.2210866	238.7872793	33866	21.35097222	4.692047733
2010	330	6.67	1.67	5.29	0.2343625	222.6173954	31.3071048	33780	21.32	4.507303117
2010	331	5.56	-1.67	3.57	0.0618	302.8723865	234.1558002	33697	21.2862037	4.25115525
2010	332	1.67	-1.11	0.9	0.027897917	235.2704458	74.68713189	33618	21.24990741	4.071105683
2010	333	5.56	-4.44	2.81	0	198.9130146	285.5329895	33541	21.22252315	3.63967765
2010	334	7.22	-4.44	4.01	0.559314583	144.0269041	271.9509367	33467	21.20362069	3.76357255
2010	335	15.56	6.11	12.96	0.634014583	217.6643005	35.0959667	33397	21.17397514	4.9113523
2010	336	8.89	-3.33	5.53	0	225.6602918	59.24984248	33329	21.15954967	4.656933883
2010	337	0	-3.89	-1.07	0	141.7869422	117.1770329	33265	21.15741007	3.979707083
2010	338	0.56	-3.33	-0.51	0	141.1717228	105.6861222	33204	21.1707321	3.623346433
2010	339	1.11	-5	-0.57	0	208.3396032	135.5414228	33146	21.2764881	3.401642
2010	340	0	-4.44	-1.22	0	185.6257966	181.157319	33092	21.26219907	2.840411183
2010	341	-1.67	-5.56	-2.74	0	148.6670345	112.8574196	33041	21.25627315	2.220637133
2010	342	-2.22	-6.67	-3.44	0	170.1421997	109.4410329	32993	21.22678241	1.912908867
2010	343	-2.22	-7.78	-3.75	0	169.1102716	141.160885	32949	21.20268519	1.610951267
2010	344	-1.11	-7.78	-2.94	0.8478	92.37163869	278.3194871	32909	21.19275463	1.4020664
2010	345	-1.11	-6.11	-2.49	0	125.3133763	68.04100754	32872	21.16960648	1.261899918
2010	346	3.33	-6.67	0.58	6.78475	53.99989583	214.0411109	32838	21.15261574	1.35168025
2010	347	6.67	-5.56	3.31	0.14025	286.7707843	43.10753475	32808	21.12305556	1.31521535
2010	348	-2.78	-10.56	-4.92	0.25175	157.1837901	185.3396376	32782	21.09861111	1.07571605
2010	349	-6.11	-10	-7.18	0.0091	133.9123063	131.4019964	32759	21.08111111	0.588993583
2010	350	-4.44	-10	-5.97	0.00675	116.3516088	142.4384239	32740	21.0550463	0.378364073
2010	351	-3.89	-10	-5.57	0	127.3264968	133.26696	32724	21.04113426	0.236710285
2010	352	-1.11	-6.67	-2.64	0	177.9268931	146.6265591	32712	21.02094907	0.340416425
2010	353	-0.56	-10.56	-3.31	0	125.3856509	173.7958048	32704	21.01530093	0.26541224
2010	354	-1.67	-11.11	-4.26	0.0354	122.916714	199.5150922	32699	21.00856481	0.289377985
2010	355	-1.67	-4.44	-2.43	0.0081	206.3356866	68.5882317	32698	21.07296296	0.294307772
2010	356	1.67	-5	-0.17	0	258.9447398	261.5004434	32701	21.21872685	0.455309307
2010	357	2.78	-3.89	0.94	0.0417	253.2793513	154.8191213	32707	21.26168981	0.623204483
2010	358	1.11	-5	-0.57	0.0011	228.4464871	146.2933032	32717	21.26444444	0.521636233
2010	359	0.56	-5	-0.97	0.0005	180.6076639	237.0277718	32731	21.23712963	0.517617083
2010	360	-1.11	-6.11	-2.49	0.0301	171.8522103	95.08027726	32749	21.20673611	0.503288533
2010	361	-2.78	-8.89	-4.46	0	194.8111694	94.07567897	32770	21.18087963	0.45909635
2010	362	-2.22	-8.89	-4.06	0.0014	193.5319113	263.7063792	32794	21.15888889	0.625214433
2010	363	1.11	-6.11	-0.88	0	209.7445961	213.9627993	32822	21.14143519	0.58925275
2010	364	4.44	-7.22	1.24	0.0145	149.7636122	237.5259634	32854	21.12898148	0.549122383
2010	365	3.33	-7.22	0.43	0	147.0148056	124.7939433	32889	21.11976852	0.429551947
