"Shalehills,"	2012	:	input	for	MTCLIM	v4.3				
MTCLIM	v4.3	OUTPUT	FILE	:	Mon	Jan	16	16:32:50	2012	
	yday	Tmax	Tmin	Tday	prcp	VPD	srad	daylen	SoilW	SoilT
		(degC)	(degC)	(degC)	(cm)	(Pa)	(Wm-2)	(s)	(%)	(deg C)
2008	1	4.44	-2.78	2.46	0.945	162.1754386	92.73449861	32928	18.24642361	1.98562999
2008	2	3.89	-5.56	1.29	0.02	187.1368421	209.4109997	32971	18.21442708	1.607185458
2008	3	-3.33	-11.11	-5.47	0	101.5438596	132.927145	33017	18.14119792	1.3010022
2008	4	-4.44	-10.56	-6.13	0	79.34736842	182.157801	33066	17.9865625	0.892287663
2008	5	3.33	-9.44	-0.18	0	213.3263158	159.8121725	33119	17.85838542	0.270235081
2008	6	5.56	-0.56	3.88	0.09	153.9578947	187.7563497	33175	17.75883681	0.271250161
2008	7	7.78	5	7.01	0.035	91.50175439	174.3005614	33234	17.77574653	1.212635815
2008	8	18.89	6.11	15.38	0.025	564.2736842	186.7858503	33296	17.98305556	3.084797986
2008	9	19.44	8.33	16.39	0.06	537.6280702	130.7140944	33362	18.16385417	5.012588925
2008	10	11.67	-0.56	8.31	0	356.7017544	177.4454842	33431	18.26292763	4.952372752
2008	11	7.78	-0.56	5.49	2.36	221.4175439	88.21887145	33503	19.30275853	4.276718303
2008	12	10.56	2.78	8.42	0	250.8	191.8583384	33579	18.71648817	3.770016462
2008	13	6.11	-2.22	3.82	0	199.2421053	117.6917433	33657	18.31855734	3.74169895
2008	14	3.89	-2.22	2.21	0.12	138.4210526	97.0025243	33738	18.10986249	3.131347552
2008	15	2.78	-2.78	1.25	0	119.7754386	141.5883511	33822	17.96982733	2.79769908
2008	16	-1.11	-2.78	-1.57	0	32.70175439	153.4271599	33909	17.87187391	2.654006957
2008	17	0	-3.33	-0.92	0.57	65.66315789	49.37731485	33999	17.7546462	2.149081294
2008	18	2.22	-2.22	1	0.33	96.6877193	235.2658943	34092	17.67354129	2.08925867
2008	19	2.78	-6.67	0.18	0	173.9508772	91.91965275	34187	17.65801113	1.846934865
2008	20	-1.11	-12.22	-4.17	0	146.877193	178.4865655	34285	17.61795965	1.792562466
2008	21	-10	-13.89	-11.07	0	37.60701754	268.1926512	34386	18.65168403	1.344159896
2008	22	-5	-13.89	-7.44	0	98.44210526	68.78910337	34489	18.53472222	0.884443809
2008	23	2.78	-6.11	0.33	0	167.4526316	275.9980612	34595	18.39215278	0.295707785
2008	24	-2.78	-7.78	-4.15	0	76.32280702	156.3799226	34703	18.25270833	0.21810746
2008	25	-2.22	-10	-4.36	0	109.6210526	282.8502188	34814	18.13090278	0.171631818
2008	26	-3.89	-10	-5.57	0.04	82.45614035	126.6929929	34926	18.01782986	0.195194815
2008	27	-2.78	-8.33	-4.31	0	82.82807018	150.7222001	35042	17.90541667	0.486059027
2008	28	-0.56	-5	-1.78	0	80.60350877	187.8811723	35159	17.84470486	0.073528472
2008	29	2.22	-2.22	1	0.4	96.6877193	52.67963586	35278	17.79053819	0.1692792
2008	30	5.56	-1.11	3.72	1.5	164.3087719	293.0187332	35400	17.74760417	0.202406437
2008	31	0.56	-8.89	-2.04	0	149.9578947	273.2331334	35523	18.3209375	0.265287212
2008	32	1.11	-7.78	-1.33	2.715	149.9017544	40.95225404	35649	18.82461806	0.369245269
2008	33	2.78	-2.22	1.4	0.005	110.245614	64.90988227	35776	18.51994792	0.386209188
2008	34	1.11	-5.56	-0.72	0	123.1789474	230.7569058	35905	18.32496528	0.652532606
2008	35	6.11	-5	3.06	0.02	238.077193	34.0405724	36036	18.55906205	0.609426353
2008	36	5	0.56	3.78	1.02	115.4596491	71.51923894	36169	18.52920331	0.578380984
2008	37	13.33	3.33	10.58	0.4	351.2280702	69.7244127	36303	18.56497812	0.110542851
2008	38	16.67	1.67	12.54	1.01	536.0421053	40.54424417	36440	18.56369947	0.488986987
2008	39	3.33	-1.11	2.11	0.06	103.8526316	109.9017083	36577	17.66054167	1.73463888
2008	40	2.22	-2.22	1	0.78	96.6877193	123.0539721	36716	17.71026042	1.185453629
2008	41	4.44	-1.67	2.76	0.21	143.4385965	161.622284	36857	17.74729167	0.704218438
2008	42	-1.11	-16.67	-5.39	0	170.5473684	322.7903543	36999	17.70741319	0.45277809
2008	43	-8.89	-16.67	-11.03	1.91	68.41403509	60.28465421	37143	17.61479021	0.308974305
2008	44	-3.33	-11.67	-5.63	0.57	106.2385965	78.89539251	37287	17.56976277	0.085021001
2008	45	0.56	-7.78	-1.74	0	138.5403509	346.6817022	37433	17.53005208	-0.142639665
2008	46	2.22	-7.78	-0.53	0	173.5438596	42.95937181	37581	17.88138889	-0.131321892
2008	47	2.78	-11.11	-1.04	0	213.5157895	323.4220362	37729	18.87595486	-0.060985867
2008	48	2.22	-10.56	-1.29	0.23	197.9649123	102.297535	37879	18.54033654	0.361980076
2008	49	8.89	-0.56	6.29	0.44	257.7403509	134.0601415	38029	18.95212766	0.394781893
2008	50	8.33	-4.44	4.82	0	295.9298246	242.1091671	38181	19.06939236	0.657314366
2008	51	-1.11	-10	-3.56	0	128.9964912	250.8848195	38334	18.61447674	0.610389516
2008	52	-3.89	-12.78	-6.33	0	106.4491228	368.2228327	38487	18.44484375	0.357798417
2008	53	-2.22	-12.78	-5.13	1.05	132.2526316	73.78282762	38642	18.36102431	0.164884307
2008	54	-2.78	-5.56	-3.54	0.08	46.58245614	186.5780142	38798	18.38177083	0.305468332
2008	55	1.67	-8.89	-1.24	0	172.5333333	384.4471599	38954	18.39541667	0.376742508
2008	56	5	-8.89	1.18	0	247.7824561	302.1012836	39111	18.61355903	0.253918849
2008	57	2.78	-5	0.64	0.79	153.2701754	44.28862066	39269	19.20666667	0.3942552
2008	58	1.67	-3.33	0.29	0.01	102.5754386	204.6366509	39428	18.95805556	0.219734508
2008	59	-2.22	-11.67	-4.82	0	124.0421053	334.745882	39587	18.69265625	0.061989478
2008	60	1.67	-12.22	-2.15	1.565	197.9789474	220.6475878	39747	18.53183566	-0.133515002
2008	61	1.67	-5.56	-0.32	0	135.3192982	243.9282684	39907	19.03764019	-0.113632266
2008	62	4.44	-5.56	1.69	0	200.9473684	320.7711247	40068	18.90416667	-0.025818963
2008	63	15.56	1.67	11.74	2.165	483.3684211	379.9740845	40230	18.71439236	0.29539159
2008	64	7.78	1.67	6.1	3.805	176.9894737	18.86539484	40392	18.56026042	0.217023958
2008	65	4.44	-2.78	2.46	0	162.1754386	85.53897782	40555	18.7159375	0.455785487
2008	66	7.78	-2.78	4.88	1.01	257.2491228	387.4121711	40718	18.83036458	1.20440219
2008	67	7.22	-1.11	4.93	2.03	213.8035088	103.2258113	40882	18.61647569	1.211442515
2008	68	3.33	-7.22	0.43	0	192.8140351	35.89436193	41046	18.46980903	1.713988617
2008	69	0	-6.67	-1.83	0	114.4140351	394.2890132	41210	18.39090278	1.472068237
2008	70	6.11	-3.89	3.36	0	223.8807018	283.9960937	41375	18.52144097	1.460636767
2008	71	6.11	1.11	4.74	0.01	136.2807018	246.5299257	41540	18.64449653	1.68601767
2008	72	4.44	-3.33	2.31	0	170.8210526	140.63198	41705	18.52244792	1.796911417
2008	73	13.33	-3.33	8.75	0.015	456.6035088	381.3056952	41870	18.40135417	2.226991283
2008	74	15	3.89	11.94	0.335	414.0701754	300.4276167	42036	18.32383681	2.814563958
2008	75	10	1.11	7.56	0	265.5368421	229.9904292	42202	18.30397569	3.845345237
2008	76	5.56	-3.89	2.96	0	208.5403509	152.4433525	42368	18.26440972	4.12131104
2008	77	7.78	-3.89	4.57	0.1	272.2807018	431.3364324	42534	18.31256944	3.718096093
2008	78	5.56	2.22	4.64	1.52	93.68421053	49.92496946	42701	18.64873264	3.481184735
2008	79	12.78	1.67	9.72	0.21	362.0140351	71.73981862	42867	18.69144097	4.023746465
2008	80	3.89	-2.78	2.06	0	147.677193	315.0069491	43033	18.58012153	4.278271897
2008	81	6.11	-2.78	3.67	1.19	207.922807	440.375063	43200	18.48381944	4.021189435
2008	82	5.56	-6.11	2.35	0	235.8736842	267.3631781	43366	18.41921875	3.507170728
2008	83	6.11	-5.56	2.9	0	244.554386	480.4435245	43533	18.3525	3.147618268
2008	84	5.56	-4.44	2.81	0	216	353.4459619	43699	18.33791667	2.584041985
2008	85	9.44	-3.89	5.78	0	324.4350877	451.9141089	43865	18.58444444	2.91063536
2008	86	12.22	1.67	9.32	0.125	339.4175439	304.9592029	44032	18.70973958	4.120339087
2008	87	6.67	2.22	5.44	0.615	128.1684211	54.82459442	44198	18.69578125	4.161830667
2008	88	7.22	-2.78	4.47	0	240.3929825	66.29826115	44363	18.61475694	4.691102293
2008	89	7.22	-4.44	4.01	0	262.7508772	502.6585413	44529	18.51390625	4.07767142
2008	90	10	-4.44	6.03	0	348.8912281	472.4898727	44695	18.46883117	4.031716132
2008	91	13.33	4.44	10.89	0.155	325.3473684	213.6532448	44860	18.9825974	4.7298252
2008	92	21.11	1.11	15.61	0.005	779.5157895	164.3847174	45025	19.18065634	6.243084637
2008	93	8.33	-2.78	5.28	0	274.5263158	443.7519691	45190	19.49636364	6.069643875
2008	94	9.44	-2.22	6.24	0.9	302.6736842	302.4458465	45354	19.37871528	5.313235883
2008	95	11.67	3.33	9.38	0.19	281.5789474	107.0538669	45518	19.01295139	5.493004633
2008	96	12.22	4.44	10.08	0	277.5157895	264.7006626	45681	18.82699653	6.196472683
2008	97	15	4.44	12.1	0	401.4596491	386.8919568	45845	18.70375	6.580615733
2008	98	8.33	5.56	7.57	0	94.65263158	120.5365037	46007	18.60052083	6.5787051
2008	99	14.44	6.11	12.15	0	332.6807018	250.9007597	46169	19.15588235	7.036100467
2008	100	16.11	6.11	13.36	0	414.5754386	245.9015494	46331	19.44732639	7.830930333
2008	101	20.56	6.67	16.74	0.74	649.7052632	460.4148952	46492	19.52692708	8.774187267
2008	102	20	11.67	17.71	0.19	459.0105263	137.8378802	46653	19.30355903	9.707549483
2008	103	18.33	3.89	14.36	0.225	581.7052632	439.8594336	46813	18.99784722	10.40617728
2008	104	8.33	0.56	6.19	0.015	218.6315789	163.1468058	46972	18.78933566	8.9754287
2008	105	10.56	-2.22	7.04	0	340.6947368	386.3056433	47131	18.6763253	7.85522545
2008	106	15	0	10.88	0	484.5333333	542.3192103	47289	18.65600649	7.511978233
2008	107	20	2.22	15.11	0	701.6982456	533.293833	47446	19.19659722	7.946122683
2008	108	26.11	7.22	20.92	0	1022.021053	535.1455074	47602	19.09326389	8.8155773
2008	109	28.33	10.56	23.44	0	1130.484211	520.4910128	47758	18.90958333	10.29534077
2008	110	27.22	12.22	23.1	3.12	984.1192982	403.2057566	47912	18.76329861	11.3890745
2008	111	15.56	12.78	14.79	0.24	144.8140351	111.2505567	48066	18.66567708	11.5413375
2008	112	21.11	11.67	18.51	0	532.8070175	267.5753768	48219	18.70659722	11.70688788
2008	113	22.22	10	18.86	0	666.6666667	401.7426988	48370	18.84208333	12.00612865
2008	114	23.89	10.56	20.22	0	768.9403509	409.0456225	48521	18.84118056	12.0702458
2008	115	22.22	11.11	19.17	0	629.8245614	505.6556276	48671	19.30177083	12.2995505
2008	116	25	11.11	21.18	2.11	836.3719298	377.1682244	48819	19.26605903	12.23152833
2008	117	27.22	10.56	22.64	0.43	1034.203509	382.2141875	48966	19.00443841	13.41836817
2008	118	19.44	7.22	16.08	2.13	568.5824561	401.1397258	49112	18.85246528	13.50048467
2008	119	11.11	5	9.43	0	217.0666667	83.71762296	49257	18.923125	11.37513248
2008	120	13.89	2.78	10.83	0	387.2912281	429.7556091	49401	19.20006944	10.86729995
2008	121	12.22	3.33	9.78	0	304.245614	395.5789628	49543	19.15944444	9.752937033
2008	122	15	3.89	11.94	0	414.0701754	251.132956	49683	19.15611111	9.2384638
2008	123	23.33	9.44	19.51	0.66	761.6350877	306.0138148	49823	19.10064236	10.52405147
2008	124	19.44	10	16.85	0.82	484.7017544	281.0805996	49960	19.24319444	12.1339625
2008	125	16.67	2.78	12.85	0	516.7719298	376.2956664	50096	19.17700495	11.81545783
2008	126	20.56	5.56	16.43	0	674.7789474	530.5125841	50231	18.9664899	11.38136205
2008	127	22.78	8.33	18.81	0	752.9473684	408.3824574	50363	18.86539063	11.7097435
2008	128	26.11	12.78	22.44	0.21	870.1122807	481.2065638	50495	18.65125087	12.30688567
2008	129	21.11	6.67	17.14	0.99	684.2807018	203.9768339	50624	18.52454545	13.34712938
2008	130	12.22	7.78	11	0	179.5649123	101.623872	50751	18.43711111	12.22579976
2008	131	18.33	6.67	15.12	0.05	518.9263158	374.7542078	50877	18.33357639	11.66244284
2008	132	16.11	1.11	11.99	2.35	518.3789474	221.3365491	51000	18.19643357	10.80254022
2008	133	10	2.22	7.86	0	242.4	134.8186883	51122	18.04810764	9.519620525
2008	134	22.22	7.22	18.1	0.015	743.0105263	567.029542	51241	17.92696181	10.27582963
2008	135	21.67	10	18.46	0.115	628.645614	284.3728082	51358	17.8153125	11.08212859
2008	136	22.78	8.89	18.96	1.31	738.0280702	408.8929532	51473	17.65307292	12.17108912
2008	137	11.11	5.56	9.58	0.02	201.5017544	64.09300221	51586	17.48699653	11.44878784
2008	138	18.89	6.67	15.53	0.61	550.5192982	212.9818305	51697	17.82810764	10.63123288
2008	139	15.56	4.44	12.5	0.05	428.0421053	234.3740933	51805	18.20953125	10.64606126
2008	140	12.78	4.44	10.49	0.98	301.1508772	335.489565	51910	18.12979167	10.07822076
2008	141	12.78	6.11	10.94	0.47	256.322807	147.6339824	52014	18.00923611	9.430446804
2008	142	15	6.11	12.56	0.12	359.3473684	289.3984597	52114	17.80255208	9.436310221
2008	143	13.33	6.67	11.5	0	264.9403509	376.6407054	52212	17.54230903	10.21896287
2008	144	18.89	6.11	15.38	0	564.2736842	486.9974637	52308	17.30807292	10.17391217
2008	145	21.67	6.11	17.39	0	731.9578947	528.4894908	52400	17.56751736	10.89386005
2008	146	23.89	9.44	19.92	0	801.9157895	580.7146981	52490	17.36079861	11.36455562
2008	147	29.44	13.89	25.17	0	1131.242105	487.8345436	52577	17.07055556	12.47733855
2008	148	27.22	7.22	21.72	0	1109.866667	327.6547551	52662	16.86300347	14.140318
2008	149	19.44	6.11	15.78	0	596.3157895	583.6596497	52743	16.64545139	13.2459027
2008	150	24.44	8.33	20.01	0	871.8105263	568.9467059	52821	16.28282986	12.40674173
2008	151	26.11	12.22	22.29	0.22	889.5859649	457.7113818	52896	16.32269097	12.74551615
2008	152	27.22	17.78	24.62	0	745.4877193	353.2111803	52969	16.29729167	14.60018417
2008	153	25.56	10	21.28	0	913.1789474	485.7659447	53038	16.19694056	15.01848667
2008	154	25	13.33	21.79	0	757.5298246	540.3713126	53103	15.99894097	14.227775
2008	155	27.78	15	24.26	2.01	930.4982456	379.2591701	53166	15.74982639	14.39901567
2008	156	21.11	17.78	20.19	0.15	232.4	89.90007727	53225	15.62185764	15.3095195
2008	157	28.33	19.44	25.89	0	758.1894737	346.4897686	53281	15.54626866	16.57308333
2008	158	32.78	20.56	29.42	0	1181.515789	524.8552043	53334	15.42151042	18.206381
2008	159	33.33	23.33	30.58	0	1067.480702	516.5663792	53383	15.23772569	18.92441467
2008	160	32.22	22.78	29.62	0	969.2842105	429.0283006	53429	15.06295139	19.4773175
2008	161	33.89	21.67	30.53	1.09	1251.333333	543.6532869	53471	15.01151042	19.88906983
2008	162	32.22	15.56	27.64	0.11	1357.122807	408.4671629	53510	15.15133681	19.485167
2008	163	28.33	16.11	24.97	0	934.1684211	572.8793795	53546	15.14286458	18.56332033
2008	164	30.56	17.78	27.04	0.04	1079.873684	545.2268061	53577	15.08352431	18.24805733
2008	165	31.67	19.44	28.31	0.065	1115.017544	436.7604974	53606	14.98236111	18.53325
2008	166	25	15.56	22.4	0.005	661.0736842	179.280661	53630	14.82986111	18.82461883
2008	167	27.22	16.67	24.32	0.68	803.0315789	544.5222949	53651	14.64484375	18.45423867
2008	168	26.67	13.89	23.15	0.82	875.8596491	353.9118234	53669	14.56026042	17.66651343
2008	169	19.44	13.33	17.76	0.14	352.6877193	295.6139089	53682	14.59345486	16.25672327
2008	170	18.89	8.89	16.14	0	487.4385965	228.1456738	53693	14.75190972	15.3308354
2008	171	20	11.11	17.56	0	480.1614035	343.5286681	53699	14.82083916	14.35160097
2008	172	26.11	13.33	22.6	0	849.5789474	472.2170654	53702	14.8040625	15.06330377
2008	173	28.33	15	24.67	1.01	982.3789474	510.2572414	53701	14.74855903	16.07452205
2008	174	26.67	15.56	23.61	0.03	805.2491228	533.9039228	53696	14.69114583	17.06005004
2008	175	25.56	12.78	22.04	0.1	823.9719298	476.5104872	53688	14.53921875	16.96363521
2008	176	25	13.33	21.79	0	757.5298246	424.6341339	53676	14.44282468	16.27542573
2008	177	27.22	15	23.86	0.15	879.6982456	435.1299247	53661	14.22195122	16.29200684
2008	178	28.33	18.33	25.58	1.2	822.3719298	304.5139958	53641	14.14454861	18.34277355
2008	179	26.67	19.44	24.68	0	595.7403509	278.7093866	53619	13.95272569	18.27080027
2008	180	28.89	18.89	26.14	0.04	847.0035088	348.9855079	53592	13.75036458	18.97255817
2008	181	27.22	17.22	24.47	0.14	774.9263158	308.4533661	53562	13.53817708	18.77389167
2008	182	25.56	15.56	22.81	0	708.1122807	415.679502	53529	13.36409722	18.435032
2008	183	22.78	13.33	20.18	0	584.9122807	299.2880135	53491	13.21805556	17.59915983
2008	184	27.22	15	23.86	0.02	879.6982456	560.1586429	53451	13.0415625	17.18966667
2008	185	25.56	18.33	23.57	0.02	561.3684211	231.5936343	53407	12.93364583	17.19759633
2008	186	23.89	17.78	22.21	2.12	450.7157895	200.4244883	53359	12.85628472	17.5713325
2008	187	24.44	16.11	22.15	0	587.5438596	256.3279109	53308	12.85461806	17.748452
2008	188	27.78	17.22	24.88	0.01	827.3754386	369.4855534	53254	13.09868056	18.25809733
2008	189	27.22	18.89	24.93	0	682.4421053	297.0647779	53196	13.39880208	19.04244917
2008	190	30.56	18.89	27.35	0.44	1022.140351	501.7860539	53135	13.26791667	19.66559717
2008	191	26.67	16.11	23.76	0	779.2982456	190.0910694	53071	13.20076923	19.69652967
2008	192	26.67	15	23.46	0	829.9649123	564.7470724	53004	13.05893411	19.18777867
2008	193	28.33	16.67	25.12	0	908.1964912	469.9030702	52933	12.91027778	18.553595
2008	194	31.11	19.44	27.9	0.33	1052.449123	519.5743107	52860	12.97961806	19.39912633
2008	195	27.78	17.22	24.88	0	827.3754386	353.6485978	52783	13.12774306	20.28596433
2008	196	26.67	15.56	23.61	0	805.2491228	520.6442997	52703	12.81743056	19.53574683
2008	197	28.33	16.11	24.97	0	934.1684211	556.3138531	52620	12.59225694	18.58602283
2008	198	31.11	17.22	27.29	0	1166.105263	555.3057769	52535	12.39920139	18.85892847
2008	199	31.67	20	28.46	0.12	1083.508772	436.9093734	52446	12.20734375	19.76299733
2008	200	32.22	21.11	29.17	0	1081.25614	410.9601648	52355	12.05598958	20.3687942
2008	201	31.67	20	28.46	0.385	1083.508772	514.8333306	52261	12.45381944	20.67772447
2008	202	32.22	18.89	28.56	0.005	1208.421053	406.7590366	52164	12.21650709	20.33071987
2008	203	29.44	18.33	26.39	0.4	934.6666667	401.7959279	52065	11.97415179	20.47445883
2008	204	28.89	19.44	26.29	1.29	814.6315789	411.6646186	51963	11.76815972	20.400245
2008	205	23.33	15	21.04	1.04	552.8491228	132.9826984	51858	11.61578671	19.40701117
2008	206	25	14.44	22.1	0	711.6350877	343.6703318	51751	11.4584375	18.276037
2008	207	27.78	15.56	24.42	0	906.5894737	529.3262234	51642	11.32513889	18.20506006
2008	208	28.33	18.33	25.58	0	822.3719298	429.0346961	51530	11.214375	18.77637125
2008	209	27.22	15.56	24.01	0	855.3824561	483.1487193	51417	11.35159722	19.465443
2008	210	28.89	17.22	25.68	0	935.6210526	486.9366676	51300	11.31661458	18.86356117
2008	211	30	17.78	26.64	0.52	1021.207018	469.9531456	51182	11.18654514	19.39652367
2008	212	29.44	18.33	26.39	0	934.6666667	326.9032193	51062	11.06060764	19.3130665
2008	213	28.89	17.78	25.83	0	907.4596491	458.6315626	50939	10.94659896	20.10674583
2008	214	28.33	18.89	25.74	0.01	791.0035088	480.7027903	50815	10.83175174	19.791718
2008	215	27.78	16.11	24.57	0	881.4526316	398.1060304	50688	10.72803125	19.841906
2008	216	25.56	15	22.65	0	733.6140351	395.5733684	50560	10.61997396	19.05662733
2008	217	27.78	16.67	24.72	0.1	855.0596491	471.1367073	50430	10.54652083	18.76093617
2008	218	24.44	19.44	23.07	0.39	394.4982456	144.0949867	50298	10.46975347	19.1827862
2008	219	28.89	16.67	25.53	0.05	962.4561404	521.3692692	50164	10.41269618	19.97472977
2008	220	26.67	14.44	23.31	0.1	853.4947368	341.568751	50029	10.37897569	18.82840133
2008	221	23.89	12.22	20.68	0	712.2807018	426.8627458	49892	10.33470486	17.95311983
2008	222	24.44	13.89	21.54	0.02	690.2175439	502.6326524	49754	10.27062674	17.40192217
2008	223	25	14.44	22.1	0.04	711.6350877	460.0865194	49614	10.35588715	17.440086
2008	224	21.67	14.44	19.68	0	453.9789474	304.8474079	49472	10.66097569	17.01265883
2008	225	24.44	12.78	21.24	0	734.6105263	399.8674219	49330	10.71922222	17.29702883
2008	226	27.78	13.89	23.96	0.55	974.7929825	418.9658173	49186	10.77834549	17.39620883
2008	227	25.56	15.56	22.81	0	708.1122807	321.5866101	49040	10.81663368	17.70935733
2008	228	25.56	12.78	22.04	0	823.9719298	427.8521979	48894	10.79433333	17.56981567
2008	229	25.56	14.44	22.5	0	757.9157895	472.2190653	48746	10.75665799	17.17343333
2008	230	27.22	15	23.86	0	879.6982456	465.9280269	48597	10.69296701	17.34158533
2008	231	29.44	17.22	26.08	0	991.4596491	503.6548261	48446	10.61393229	17.815683
2008	232	26.11	10	21.68	0	957.4807018	362.8242978	48295	10.590875	18.09006397
2008	233	25.56	11.11	21.58	0	880.4421053	540.5607959	48143	10.55323264	17.01953122
2008	234	29.44	12.78	24.86	0	1168.575439	517.6613436	47990	10.47814236	16.91055603
2008	235	30	16.11	26.18	0	1099.087719	511.219538	47836	13.72994792	18.07648504
2008	236	27.78	17.78	25.03	0	798.3508772	470.4145187	47681	13.8265625	18.1742005
2008	237	31.11	18.89	27.75	0.13	1082.968421	451.7354274	47525	13.50493056	18.49916883
2008	238	27.78	12.78	23.65	0	1014.603509	506.2131091	47368	13.97265625	18.91014473
2008	239	26.11	13.33	22.6	0.003895833	849.5789474	501.72192	47210	14.87633681	17.56332097
2008	240	26.67	13.89	23.15	0.634125	875.8596491	414.0504442	47052	14.86123264	17.061494
2008	241	17.78	15.56	17.17	0.228345833	133.9719298	81.34472435	46893	14.77510417	16.63892083
2008	242	21.11	16.67	19.89	0	298.2175439	145.0714547	46734	14.66779514	17.00096433
2008	243	27.22	12.22	23.1	0	984.1192982	290.1869269	46573	14.52366319	17.98709917
2008	244	27.22	13.33	23.4	0	945.6491228	513.1755418	46413	14.36137153	17.38625133
2008	245	26.67	12.78	22.85	0	917.2561404	516.7781336	46251	14.19661458	17.1286
2008	246	29.44	14.44	25.32	0	1110.919298	504.092889	46089	14.06685764	17.089326
2008	247	30.56	15.56	26.43	0	1179.347368	484.1421035	45927	13.95374126	17.656088
2008	248	31.67	16.11	27.39	0	1274.596491	458.2093821	45764	13.84649306	18.103045
2008	249	31.11	20.56	28.21	0.05584375	986.9403509	429.8890617	45600	13.75282986	18.71906867
2008	250	22.78	12.78	20.03	0.001297917	607.6070175	97.79554666	45437	13.61414931	18.9557967
2008	251	25	13.89	21.94	0.002595833	735.1508772	398.7228077	45272	13.46227431	18.22116998
2008	252	26.67	13.89	23.15	0.62999375	875.8596491	453.5832673	45108	13.34364583	17.60944118
2008	253	20	9.44	17.1	0.0122	537.7473684	98.26026197	44943	13.72529514	17.39391928
2008	254	21.11	10.56	18.21	0.00726875	572.877193	459.865281	44778	14.03446181	16.2708472
2008	255	20.56	13.33	18.57	0.68049375	426.7087719	286.4331132	44613	14.16050347	15.89626573
2008	256	21.11	18.33	20.35	0.05988125	197.4105263	79.44366988	44447	14.30366319	17.0476706
2008	257	24.44	19.44	23.07	0.0077875	394.4982456	189.3953091	44281	14.46690972	18.2820114
2008	258	29.44	18.89	26.54	0	904.1824561	352.8460196	44115	14.59595486	19.38527015
2008	259	22.78	11.67	19.72	0	649.7964912	280.2694421	43949	14.63972222	19.11867531
2008	260	20	9.44	17.1	0.002595833	537.7473684	212.0886623	43783	14.68032986	17.02985466
2008	261	23.33	10	19.67	0	745.277193	445.4714585	43617	14.71094406	16.09003235
2008	262	21.11	7.78	17.44	0	656.7087719	414.5938964	43450	14.69887153	16.11321985
2008	263	20.56	8.33	17.19	0	606.2245614	392.8645829	43284	14.66008741	15.26621954
2008	264	21.11	10	18.06	0.003895833	591.4526316	382.6323023	43117	14.6277972	15.05129053
2008	265	24.44	10	20.47	0.002595833	827.4035088	381.1563304	42951	14.59717014	15.15936392
2008	266	19.44	7.78	16.24	0	553.522807	177.2766267	42784	14.54022569	15.29815823
2008	267	21.11	8.89	17.75	0	625.8315789	382.7303362	42618	14.4425	14.7416825
2008	268	23.33	9.44	19.51	0	761.6350877	428.1294782	42452	14.34527778	14.50056167
2008	269	20.56	11.11	17.96	0.00519375	516.3438596	339.187875	42286	14.27989583	14.60048933
2008	270	17.78	12.22	16.25	0.307825	297.5859649	78.80159904	42120	14.19821181	14.80417783
2008	271	21.11	16.67	19.89	0.688397917	298.2175439	135.518796	41954	14.12010417	16.073031
2008	272	22.22	13.89	19.93	0.0077875	519.9087719	200.4997296	41788	14.07085069	17.13759367
2008	273	20.56	10	17.65	0	555.0736842	249.7826344	41623	14.01559028	16.52811583
2008	274	18.33	10	16.04	0.233795833	417.4245614	175.4387418	41458	13.92104167	14.893194
2008	275	15.56	8.33	13.57	0	320.5614035	159.9353477	41293	13.82482639	14.16487033
2008	276	12.78	8.33	11.56	0	185.5578947	222.5549067	41129	13.74660211	13.09481017
2008	277	15	5	12.25	0.103904167	388.154386	150.745599	40964	13.69263889	12.3758245
2008	278	14.44	6.11	12.15	0	332.6807018	212.2729985	40801	13.63423611	11.565312
2008	279	16.67	7.78	14.22	0.002595833	396.3438596	382.3161791	40637	13.59390625	12.1173195
2008	280	16.67	2.22	12.69	0.0181875	526.7087719	343.3706133	40474	13.55180556	12.0149635
2008	281	16.67	2.78	12.85	0.01688125	516.7719298	395.7342255	40312	14.29335069	10.81735503
2008	282	16.67	7.22	14.07	0.035064583	412.7508772	199.4107839	40150	14.13534965	11.14282967
2008	283	21.67	8.89	18.15	0	662.4070175	355.4084393	39989	14.09458333	13.40339767
2008	284	21.11	6.11	16.99	0	696.8982456	384.7391046	39828	14.14942708	12.97412733
2008	285	21.11	5.56	16.83	0	708.7719298	378.8862382	39667	14.2325	12.35403333
2008	286	22.78	7.78	18.65	0	767.0315789	370.6958854	39508	14.27432292	12.53982267
2008	287	25	8.89	20.57	0	899.6140351	278.6122505	39349	14.32831597	12.8040885
2008	288	26.11	8.89	21.37	0	985.8385965	308.7893913	39191	14.38774306	13.275849
2008	289	23.33	12.78	20.43	0	649.0245614	284.2659619	39033	14.46144828	14.78190567
2008	290	20	8.89	16.94	0	555.0877193	87.14541165	38876	14.51866319	14.821793
2008	291	12.22	2.78	9.62	0	316.6035088	139.353703	38720	14.56786458	12.36477083
2008	292	10.56	-1.11	7.35	0	324.5192982	260.8155971	38565	14.63220486	10.43657772
2008	293	11.67	-1.11	8.15	0.003895833	365.1789474	370.9802759	38411	14.68986111	9.469537217
2008	294	16.11	-0.56	11.53	0.002595833	541.9649123	329.7280294	38258	14.74545139	8.800280967
2008	295	10.56	2.78	8.42	0	250.8	194.8514852	38106	14.79105903	9.1798608
2008	296	9.44	0.56	7	0	256.554386	253.0808748	37955	14.81454861	8.957874717
2008	297	12.22	0.56	9.01	0	359.8245614	349.1632767	37804	14.83065972	8.341854633
2008	298	13.89	6.67	11.9	1.540483333	290.6175439	150.384268	37655	14.83723958	8.4012301
2008	299	14.44	3.33	11.39	0.005191667	400.4912281	38.64773371	37507	14.83376736	9.943415233
2008	300	16.67	3.89	13.15	0	494.9824561	325.2717348	37361	14.85963542	9.468852383
2008	301	8.89	3.89	7.51	0.007791667	161.8526316	225.3743041	37215	15.03902778	9.5886378
2008	302	6.67	1.11	5.14	0.18833125	153.4105263	87.9272992	37071	15.19388889	8.43952235
2008	303	4.44	-0.56	3.07	0.001297917	122.6666667	92.04370685	36928	15.42498264	6.80652015
2008	304	8.89	-0.56	6.29	0	257.7403509	328.572719	36787	15.58110915	6.5825919
2008	305	18.33	3.33	14.21	0	592.1684211	311.5542695	36647	15.64111111	7.014874533
2008	306	17.78	4.44	14.11	0	540.7368421	204.8282786	36509	15.68654514	8.818536567
2008	307	9.44	3.89	7.92	0	182.1403509	166.1949789	36372	15.75190972	8.753033867
2008	308	14.44	7.22	12.46	0	300.322807	228.1477149	36237	15.82052083	9.01019265
2008	309	13.89	8.89	12.51	0.01	218.3298246	88.53198094	36103	15.86270833	9.598966183
2008	310	18.33	8.89	15.74	0	454.7368421	227.45942	35971	15.91013889	10.56963005
2008	311	20	10	17.25	0	519.4947368	214.4098779	35841	15.95673611	11.336407
2008	312	21.67	9.44	18.31	0.24	645.9719298	271.4647446	35713	15.99848958	11.88558017
2008	313	12.78	4.44	10.49	0	301.1508772	118.59836	35586	16.07814236	11.11031983
2008	314	8.33	1.67	6.5	0	195.6070175	129.2679213	35462	16.19192708	9.271604183
2008	315	3.89	0.56	2.97	0	84.36491228	137.1362137	35339	16.3378125	7.858047233
2008	316	4.44	0	3.22	0	111.4736842	108.2436294	35219	16.52722222	7.0329933
2008	317	10	0.56	7.4	1.51	276.2175439	200.6939091	35100	16.79456597	7.22607755
2008	318	8.89	5.56	7.97	0	115.0035088	34.041536	34984	17.58635417	7.51509305
2008	319	11.67	8.33	10.75	0.59	135.8245614	83.21355918	34870	17.8125	8.6705713
2008	320	13.33	2.22	10.28	0.05	374.4701754	36.74762132	34759	17.72449653	9.609258383
2008	321	5	0.56	3.78	0.04	115.4596491	100.5738563	34649	17.64956597	7.790283567
2008	322	2.78	-3.89	0.94	0	137.4175439	104.5215343	34542	17.59329861	6.477928067
2008	323	-0.56	-6.67	-2.24	0	103.4105263	188.686647	34438	17.51831597	4.656617983
2008	324	0	-5.56	-1.53	0	99.83157895	193.7961745	34336	17.43920139	3.4786987
2008	325	3.89	-2.78	2.06	0.15	147.677193	110.7954197	34237	17.35519097	3.930760717
2008	326	-1.11	-6.67	-2.64	0	92.70175439	123.3531079	34140	17.27815972	3.564380583
2008	327	-1.67	-6.11	-2.89	0	74.85614035	156.1457183	34046	17.39307292	2.831294317
2008	328	2.78	-6.67	0.18	0.68	173.9508772	252.6854036	33954	17.82319444	2.469676515
2008	329	2.22	-5.56	0.08	0.94	147.7754386	70.94668636	33866	18.45604167	2.120269915
2008	330	3.89	0	2.82	0.05	96.26666667	141.7083549	33780	18.11206597	2.53703195
2008	331	1.67	0	1.21	0	39.15789474	78.75239387	33697	17.88552083	2.69115255
2008	332	5.56	-2.22	3.42	0	183.4526316	228.7654364	33618	17.74229167	2.828267817
2008	333	5.56	-1.11	3.72	0	164.3087719	199.7747231	33541	17.71748264	2.762012017
2008	334	5.56	-3.33	3.11	0.73	200.645614	231.6988366	33467	17.69414557	3.035957943
2008	335	3.89	0	2.82	0.41	96.26666667	22.42669675	33397	17.88774038	2.794495375
2008	336	6.11	0	4.43	0	159.4596491	104.19202	33329	18.06362847	3.531155212
2008	337	2.22	-5	0.24	0	140.3578947	105.0106661	33265	18.22109375	3.581130722
2008	338	6.67	-4.44	3.61	0	246.7719298	235.4788521	33204	18.0068007	2.91681817
2008	339	7.78	-3.89	4.57	0	272.2807018	25.19693664	33146	17.81328671	3.566464285
2008	340	-1.67	-8.33	-3.5	0	102.2736842	122.2308079	33092	17.64895833	2.224762967
2008	341	-1.67	-8.33	-3.5	0.03	102.2736842	115.8176569	33041	17.60633681	1.418810183
2008	342	-3.89	-9.44	-5.42	0	76.76491228	125.1279916	32993	18.36295139	1.02373055
2008	343	-1.11	-8.89	-3.25	0	118.2526316	67.87708976	32949	18.05956597	0.762486335
2008	344	11.67	-2.22	7.85	1.47	380.6105263	152.765177	32909	17.98717014	1.387687502
2008	345	12.22	-1.11	8.56	1.365	386.2526316	26.23148282	32872	18.18967014	2.945005083
2008	346	1.67	-1.11	0.9	1.145	62.37894737	17.42315787	32838	18.24217014	3.033106483
2008	347	1.67	-6.11	-0.47	0	142.4561404	66.38455525	32808	18.11078125	2.724113417
2008	348	-0.56	-6.11	-2.08	0	96.21052632	208.7081864	32782	17.98149306	2.154702083
2008	349	9.44	-1.67	6.39	0.265	294.477193	216.7357875	32759	17.85394097	2.4239456
2008	350	13.89	-1.67	9.61	0.315	459.7824561	61.01481096	32740	17.70045139	3.438138867
2008	351	1.11	-2.22	0.19	1.07	70.59649123	58.79060878	32724	17.57626736	3.259205333
2008	352	3.33	-0.56	2.26	0	92.91929825	35.20439853	32712	17.46458333	2.7973959
2008	353	2.22	-0.56	1.46	3.18	64.64561404	76.67309631	32704	17.36720486	2.976317583
2008	354	5.56	-4.44	2.81	0.02	216	13.32062939	32699	17.32767361	2.420737733
2008	355	-2.78	-5.56	-3.54	0.12	46.58245614	118.6958444	32698	17.34130208	2.046831483
2008	356	1.67	-15.56	-3.07	0	214.0280702	157.2486056	32701	17.61868056	1.6545169
2008	357	-7.78	-14.44	-9.61	0	66.78596491	225.345312	32707	17.68107639	0.853892362
2008	358	1.11	-11.11	-2.25	3.335	179.6561404	128.8731825	32717	17.59550347	0.241004086
2008	359	9.44	-0.56	6.69	0.315	276.5824561	38.65547498	32731	17.50418403	0.245230586
2008	360	0	-5.56	-1.53	0	99.83157895	149.7456344	32749	17.43744792	0.259533345
2008	361	2.78	-4.44	0.79	0.36	145.5578947	158.1742911	32770	17.37512153	0.621395968
2008	362	9.44	0	6.85	0.01	266.8421053	110.2439857	32794	17.29508681	0.773267809
2008	363	12.22	0	8.86	0	369.1719298	123.0533961	32822	17.20828125	1.001080324
2008	364	6.67	-1.11	4.53	0	196.8912281	223.3010993	32854	17.11737847	1.083118947
2008	365	3.89	-1.11	2.51	0.08	118.4	226.471796	32889	17.00769097	0.956272686
2009	1	1.67	-9.44	-1.39	0	264.1864349	133.926799	32928	16.87744792	0.590941398
2009	2	-1.67	-9.44	-3.81	0	252.0662643	239.5821412	32971	16.81180556	0.592997263
2009	3	5.56	-5.56	2.5	0	338.4527851	133.5129764	33017	16.77046875	0.396095402
2009	4	1.11	-7.78	-1.33	0	169.1340428	216.5276251	33066	16.71862847	0.361824697
2009	5	3.89	-7.22	0.83	0.01	266.6382496	113.138658	33119	16.65378788	0.634411214
2009	6	3.89	-3.33	1.9	0.44	227.4430348	161.6127221	33175	16.58538462	0.523533892
2009	7	0	-3.33	-0.92	1.83	50.3711006	30.66382658	33234	16.55619792	0.558141683
2009	8	2.22	-3.33	0.69	0	165.2672999	30.97559934	33296	16.52828125	0.429593151
2009	9	-2.22	-5.56	-3.14	0	139.4944835	123.7243467	33362	16.37473958	0.311407104
2009	10	-2.78	-5.56	-3.54	0.955	49.44759858	183.0391468	33431	16.24651042	0.249778536
2009	11	-0.56	-5.56	-1.93	0.095	108.3172789	45.58132656	33503	16.16555556	0.201448939
2009	12	-3.33	-6.11	-4.1	0	119.1433274	107.8948146	33579	16.09972222	0.218612373
2009	13	-0.56	-6.67	-2.24	0	110.799546	162.7700455	33657	16.05729167	0.207900998
2009	14	0.56	-12.78	-3.11	0.085	98.79150683	80.76137528	33738	16.03159722	-0.039953369
2009	15	-7.78	-13.33	-9.31	0.165	98.60923509	165.7902517	33822	15.96015625	-0.130095666
2009	16	-8.89	-17.22	-11.18	0	94.76454865	170.7802837	33909	15.99265625	-0.438000144
2009	17	-13.33	-18.89	-14.86	0	68.80729022	237.5597225	33999	16.15355903	-0.446218965
2009	18	-6.67	-19.44	-10.18	0.23	44.73166455	186.6056821	34092	16.31993056	-0.322418055
2009	19	-3.33	-7.78	-4.56	0.04	102.9768209	100.5953029	34187	16.38886364	-0.362478682
2009	20	-4.44	-12.22	-6.58	0	118.3555004	172.9545073	34285	16.34853896	-0.298334826
2009	21	-3.89	-12.78	-6.33	0	155.8506765	134.1137892	34386	16.30821429	-0.297580555
2009	22	-4.44	-12.78	-6.74	0	150.5775132	222.7325286	34489	17.90283217	-0.19275281
2009	23	4.44	-5.56	1.69	0	233.9671771	266.6528812	34595	18.09498264	-0.086051338
2009	24	10.56	-2.78	6.89	0.00445	438.592215	249.5710254	34703	18.0525	-0.248217213
2009	25	-1.11	-12.78	-4.32	0.018333333	108.7026327	168.1145967	34814	18.31179078	-0.695011805
2009	26	-7.22	-12.78	-8.75	0.000683333	107.2715216	117.0692773	34926	18.36826923	-0.6714299
2009	27	-2.78	-10.56	-4.92	0.009583333	153.6160651	223.3909815	35042	18.07954861	-0.67522184
2009	28	-2.78	-6.67	-3.85	1.365966667	67.40931715	120.2530991	35159	17.94342014	-0.625323248
2009	29	1.67	-8.33	-1.08	0.008666667	211.3752309	49.91883173	35278	17.88668403	-0.569163705
2009	30	-0.56	-8.33	-2.69	0.087966667	154.5088648	243.1769023	35400	17.85998264	-0.577287268
2009	31	0	-11.11	-3.06	0.001216667	203.5899768	172.5870734	35523	17.82291667	-0.617125428
2009	32	-1.11	-11.67	-4.01	0	164.3049002	287.0344842	35649	17.79746528	-0.436206182
2009	33	9.44	-1.11	6.54	0.060466667	152.2796808	293.8597656	35776	17.76494792	-0.342651662
2009	34	3.89	-4.44	1.6	0.004133333	147.6905964	62.03791142	35905	17.81541667	-0.41716836
2009	35	1.67	-8.89	-1.24	0.09065	176.1774139	224.905403	36036	17.75439236	-0.545501852
2009	36	-3.89	-16.11	-7.25	0.001	147.1429927	193.1532554	36169	17.66621528	-0.781788905
2009	37	-7.22	-15.56	-9.51	0	139.7014676	321.674311	36303	17.61183099	-0.739787707
2009	38	3.33	-8.33	0.12	0	237.8874798	319.4820837	36440	17.51444444	-0.418762959
2009	39	12.78	-2.78	8.5	0.000316667	419.5200398	193.984732	36577	17.39151042	-0.468114993
2009	40	10.56	-2.22	7.04	0	386.0580639	193.239496	36716	17.28105903	-0.192399073
2009	41	7.22	-2.22	4.62	0.157616667	200.2813618	304.4302121	36857	17.59293706	0.283540747
2009	42	10	2.78	8.01	0.013283333	279.2561642	76.0473577	36999	18.38947619	1.42649607
2009	43	16.67	5	13.46	0.499733333	600.4362025	232.3455295	37143	18.17713542	1.732218424
2009	44	6.11	1.11	4.74	0.0026	318.3311801	77.60671405	37287	18.05159722	1.35426397
2009	45	2.22	-0.56	1.46	0.107133333	167.2721316	64.80448862	37433	17.93463542	1.254566053
2009	46	0.56	-5	-0.97	0.005033333	227.6195056	110.0978022	37581	17.82230903	1.176902235
2009	47	2.22	-5.56	0.08	1.67E-05	272.1943102	314.5582499	37729	17.70215278	0.900053468
2009	48	0.56	-7.78	-1.74	0	236.7528368	205.3245007	37879	17.60059028	0.624521288
2009	49	3.33	-7.78	0.28	0.480608333	161.2265878	346.3965396	38029	17.87536458	0.562335183
2009	50	4.44	-1.67	2.76	0.280633333	194.6061353	34.61468022	38181	18.82303819	0.575147688
2009	51	2.22	-8.89	-0.83	0.008408333	251.1921475	172.0000348	38334	19.22277778	0.139543287
2009	52	-3.89	-8.89	-5.26	0	223.1231013	203.4263035	38487	18.7271875	0.038640739
2009	53	3.33	-7.22	0.43	0.093208333	260.7307378	354.4329861	38642	18.55914931	0.111804161
2009	54	0	-6.67	-1.83	0.049475	229.8927661	183.6389735	38798	18.5021875	-0.106102778
2009	55	-3.89	-11.11	-5.87	0	188.3726894	190.1183944	38954	18.36302083	-0.360381787
2009	56	-0.56	-11.11	-3.46	0	249.314548	389.1546756	39111	18.26703125	-0.169163195
2009	57	8.33	-7.22	4.06	0.015366667	428.006074	376.2466995	39269	18.23104167	0.456634912
2009	58	12.78	2.78	10.03	0.744733333	279.7922266	180.3979712	39428	18.30677083	1.073350702
2009	59	12.78	-3.89	8.19	0.000133333	487.0341169	78.37119878	39587	18.70611111	1.242243283
2009	60	1.67	-4.44	-0.01	0	345.0601914	323.9259009	39747	18.50824653	1.129675917
2009	61	3.89	-8.33	0.53	3.33E-05	354.7241505	263.8938796	39907	18.36142361	0.513456023
2009	62	-5.56	-13.89	-7.85	0	201.4583111	311.035004	40068	18.2470471	0.091859722
2009	63	-2.22	-13.89	-5.43	0	249.8397379	416.6997388	40230	18.12239583	-0.134418055
2009	64	2.78	-11.11	-1.04	0	353.4684994	421.8921709	40392	18.03977431	0.222493982
2009	65	11.67	-7.22	6.47	0	543.6752737	403.9230181	40555	17.97944444	1.591128935
2009	66	20	8.33	16.79	0.004733333	744.2677937	272.3272721	40718	17.91447917	3.661941667
2009	67	21.67	12.78	19.22	0.840566667	457.0879083	160.4609428	40882	17.85241319	5.0602231
2009	68	15	6.11	12.56	0.508116667	356.2603444	41.08097026	41046	17.91255208	4.68408935
2009	69	10	1.67	7.71	0.06885	242.4558126	109.0188869	41210	18.40895833	3.922303933
2009	70	7.22	2.22	5.85	0.024183333	404.9297895	72.05284713	41375	18.57227431	4.823018283
2009	71	17.22	-2.78	11.72	3.33E-05	795.2153365	360.6747725	41540	18.60779514	3.57351065
2009	72	2.78	-5	0.64	0	319.2155879	294.3199727	41705	18.70387153	3.26449745
2009	73	6.67	-5	3.46	0	326.2932209	432.5803815	41870	18.50390625	3.602295367
2009	74	11.11	-1.11	7.75	0	333.8742675	362.2805416	42036	18.42190972	4.896749533
2009	75	13.89	2.22	10.68	0.651216667	274.9745386	364.2635987	42202	18.56963542	5.125130783
2009	76	11.67	3.33	9.38	0.127316667	267.5401823	116.415376	42368	18.93199301	5.551244217
2009	77	12.78	2.78	10.03	0	448.9978894	238.6125356	42534	18.83286458	6.145179867
2009	78	22.78	3.89	17.58	0.003683333	1053.709672	405.2664106	42701	18.52548611	6.74820995
2009	79	12.78	-2.22	8.65	0.004033333	629.3741589	300.0438075	42867	18.4809375	4.972917817
2009	80	6.67	-6.11	3.15	0	449.3988361	315.8763242	43033	18.51427083	3.879189617
2009	81	8.33	-6.11	4.36	0	434.1245019	381.6576909	43200	18.38005245	4.06765255
2009	82	12.22	-3.33	7.94	0	772.7372812	332.7943856	43366	18.70994792	4.113649067
2009	83	7.78	-6.67	3.81	0	602.8603107	497.4760742	43533	18.58230903	3.667400933
2009	84	8.89	-6.11	4.76	0.000116667	618.5631465	482.0010294	43699	18.48522569	3.5882405
2009	85	10	2.22	7.86	1.215633333	109.8442733	243.9081773	43865	18.39302083	4.112110883
2009	86	5.56	1.67	4.49	0.001033333	272.2866165	42.91579467	44032	18.32835069	5.278441433
2009	87	14.44	2.78	11.24	0.335508333	168.8633258	378.6696335	44198	18.28255208	6.180595833
2009	88	12.22	7.22	10.85	0.7059	227.6366565	84.96919433	44363	18.24446181	6.663504167
2009	89	10.56	1.11	7.96	0.068941667	343.3438813	137.3672365	44529	18.20484375	5.470238667
2009	90	3.89	0	2.82	0	353.6276041	151.3662238	44695	18.14001736	6.037169217
2009	91	16.11	0.56	11.83	0.710925	256.8713881	481.3269972	44860	18.09404514	6.149077083
2009	92	8.89	6.11	8.13	0.019375	314.3319836	100.5858912	45025	18.22282986	7.900946067
2009	93	18.89	6.67	15.53	1.815816667	278.580352	438.7822138	45190	18.25589789	8.7522632
2009	94	15.56	3.33	12.19	0.02295	640.2511348	75.58999697	45354	18.48472222	7.71594885
2009	95	8.89	2.22	7.06	0	645.7900798	356.7179475	45518	18.98946181	7.8282294
2009	96	18.89	2.78	14.46	0.451816667	490.0568742	500.9333682	45681	19.10052083	8.074059017
2009	97	12.22	-1.11	8.56	0.01775	442.7006644	168.3765227	45845	19.23967014	6.091749533
2009	98	3.89	-0.56	2.67	0.001783333	422.2031368	232.4155045	46007	18.86291667	5.906940733
2009	99	10	-0.56	7.1	0	604.6907822	336.7811786	46169	18.71081597	6.201961117
2009	100	15	1.11	11.18	0.184116667	399.0540823	519.847472	46331	18.57550347	6.25099075
2009	101	9.44	3.89	7.92	0.205133333	503.8963151	98.47135773	46492	18.43902778	7.347819683
2009	102	12.78	-1.11	8.96	0	778.1438675	426.2316204	46653	18.32390625	6.66879815
2009	103	10	-2.78	6.49	0.000966667	547.4747602	549.9945639	46813	18.21177083	6.1267449
2009	104	12.78	-1.11	8.96	1.050633333	119.0061886	354.890945	46972	18.2678125	6.233354633
2009	105	7.78	5	7.01	1.37	116.3689887	44.61565154	47131	18.57166667	6.429903483
2009	106	7.78	-0.56	5.49	0.000516667	416.5154791	123.0960642	47289	18.74741319	7.183044217
2009	107	18.33	1.11	13.6	0	1103.46758	544.8306584	47446	19.196875	8.100519667
2009	108	21.11	4.44	16.53	0	1361.317267	550.1352524	47602	18.83697917	9.216704633
2009	109	23.33	10.56	19.82	0.003033333	1347.874024	524.4385903	47758	18.58166667	10.05577963
2009	110	20	5	15.88	0.924775	348.6805386	289.1483671	47912	18.37145833	8.6613176
2009	111	7.78	4.44	6.86	0.536141667	175.0739881	71.67406107	48066	18.16826389	8.794954867
2009	112	17.22	5	13.86	0.023133333	482.297071	297.4775181	48219	17.97241319	7.9391236
2009	113	11.11	2.22	8.67	0.143816667	464.8843314	321.5312757	48370	17.79916667	7.84872205
2009	114	12.78	3.33	10.18	0.030466667	606.7031419	383.741556	48521	17.62572917	8.74412315
2009	115	23.89	5	18.69	0	1212.598359	423.1125568	48671	17.51149306	11.06692868
2009	116	30	13.89	25.57	0	2066.634528	421.7635036	48819	17.37993056	12.872462
2009	117	31.11	15	26.68	0	2221.143246	532.2493399	48966	17.41763889	14.164437
2009	118	32.22	16.67	27.94	0	1939.849546	528.5625019	49112	17.41769097	14.655188
2009	119	29.44	6.67	23.18	0.0001	1225.275917	482.8611281	49257	17.99376736	13.543775
2009	120	19.44	7.22	16.08	0.090716667	512.5185758	393.7862667	49401	18.04538194	12.18818
2009	121	17.22	11.11	15.54	0.344066667	329.7594936	116.0986219	49543	17.91805556	12.70728017
2009	122	21.67	11.11	18.76	0.6231	726.5510594	228.7217317	49683	17.70095486	12.89560767
2009	123	17.78	8.33	15.18	0.264616667	280.056739	319.5006927	49823	17.54996528	11.576427
2009	124	14.44	8.33	12.76	1.5003	146.8725817	174.2349303	49960	17.63786458	11.287524
2009	125	11.11	9.44	10.65	0.673058333	196.1258044	77.18625712	50096	18.14419014	11.0739125
2009	126	13.33	9.44	12.26	0.68195	211.5938044	125.7642477	50231	18.45378	11.61468183
2009	127	18.89	11.11	16.75	0.897275	522.6763283	226.5737674	50363	18.64967391	12.423324
2009	128	21.11	11.11	18.36	0.219233333	366.700773	321.2969482	50495	18.43310764	12.34042883
2009	129	22.22	12.78	19.62	0.023866667	757.6694342	259.7306589	50624	18.11975694	13.245162
2009	130	24.44	8.89	20.17	0.001066667	1085.621956	303.4049814	50751	18.71385417	12.41621333
2009	131	15.56	6.11	12.96	0.02545	368.7424103	258.1603126	50877	18.77855903	11.11687122
2009	132	15.56	3.89	12.35	0.008583333	620.5911312	215.4871635	51000	18.61185764	10.92327265
2009	133	16.67	4.44	13.31	0	702.4807696	477.4529979	51122	18.95940972	11.17875647
2009	134	21.67	7.22	17.69	1.647083333	282.4456908	474.234379	51241	18.92453125	12.0907205
2009	135	20	11.11	17.56	0.424166667	606.2392927	240.4137217	51358	18.55430556	13.3921065
2009	136	24.44	11.11	20.78	1.875883333	472.1160068	499.0294831	51473	18.13894097	14.291933
2009	137	26.11	7.78	21.07	0.455283333	1279.800578	324.6724167	51586	17.80119792	13.42447633
2009	138	15	3.89	11.94	0	799.4811004	494.977825	51697	17.82973958	11.64920378
2009	139	15.56	2.78	12.04	0	674.835982	600.0496064	51805	18.80194444	11.26339255
2009	140	22.22	5.56	17.64	0	1029.752062	594.6689553	51910	18.85892361	12.1660175
2009	141	28.33	11.11	23.6	0	1433.767087	580.2008955	52014	19.49178819	13.10204817
2009	142	29.44	13.89	25.17	0.00005	1243.95323	594.1099526	52114	19.39987847	13.89305683
2009	143	28.89	15.56	25.22	0.097833333	798.0652995	446.8734524	52212	19.0240625	14.75360467
2009	144	27.78	15.56	24.42	0.219808333	616.3887921	350.8107653	52308	18.64678819	15.196075
2009	145	29.44	16.11	25.78	0.215925	1196.570604	384.1290821	52400	18.26038194	15.70710833
2009	146	26.11	12.22	22.29	0.580183333	513.7200429	529.2697497	52490	17.83871528	13.98719683
2009	147	12.78	9.44	11.86	0.1383	127.795897	92.08773036	52577	17.468125	13.088926
2009	148	16.67	10.56	14.99	0.526358333	156.1560378	162.4892186	52662	17.10239583	14.1169635
2009	149	22.78	16.67	21.1	1.356208333	345.4430767	230.7430981	52743	16.79498264	14.96284217
2009	150	20	12.78	18.01	8.33E-05	761.5117931	184.5111626	52821	16.61215278	14.57022583
2009	151	21.67	10	18.46	0	917.7313413	541.4318949	52896	16.38378472	13.83123
2009	152	21.11	5	16.68	0.002316667	748.3944377	546.9678723	52969	16.41569444	13.007849
2009	153	22.78	8.33	18.81	0.405066667	391.0654887	477.1616387	53038	16.64824653	14.18153983
2009	154	23.89	15.56	21.6	1.566466667	162.8550763	322.5402297	53103	16.70339161	14.19061167
2009	155	16.67	11.11	15.14	0.04065	320.1857322	54.6765062	53166	16.55939236	13.7514935
2009	156	17.78	11.11	15.94	0.610183333	142.9780977	217.6045612	53225	16.30486111	13.4810795
2009	157	14.44	12.22	13.83	0.05565	457.0342452	73.8999797	53281	16.03435764	14.44826383
2009	158	24.44	12.78	21.24	0	781.4197036	556.2290666	53334	15.72213542	14.92855367
2009	159	27.22	15.56	24.01	1.172641667	665.3370689	529.9760846	53383	15.42447917	15.89600883
2009	160	27.78	18.33	25.18	0.816958333	607.6812536	390.5220662	53429	15.16951389	16.85053367
2009	161	28.33	16.67	25.12	0.053866667	534.0691892	371.4291498	53471	14.93215278	16.66832267
2009	162	25	17.78	23.01	0.770391667	246.4732931	321.8578724	53510	14.90739583	16.451369
2009	163	22.22	17.78	21	0.602158333	384.3381698	157.0221691	53546	15.50986111	16.75228583
2009	164	23.89	16.11	21.75	0	696.7668218	266.0208379	53577	15.31269231	16.6149545
2009	165	25	11.11	21.18	0.000166667	901.0650168	363.8316403	53606	15.08322917	16.06725033
2009	166	25	12.78	21.64	0	948.8202684	555.3679611	53630	14.83835069	15.84487767
2009	167	26.67	15	23.46	0	568.0934847	546.8221063	53651	14.59522569	15.6101455
2009	168	22.22	15.56	20.39	1.91045	280.2558962	187.0264966	53669	14.54368056	15.20846217
2009	169	16.67	13.89	15.9	0.416083333	268.2314446	133.8721243	53682	14.80689236	15.40802
2009	170	21.67	15.56	19.99	0	551.8582417	212.5206391	53693	14.60413194	15.9651195
2009	171	24.44	16.11	22.15	3.7643	322.3490787	341.4431635	53699	14.4521875	16.43381717
2009	172	24.44	16.67	22.31	0.360316667	646.0100973	146.4880898	53702	14.30989583	16.46886633
2009	173	23.89	15.56	21.6	1.67E-05	828.393316	273.6690791	53701	14.20161458	16.77141617
2009	174	27.22	15.56	24.01	0	1047.297317	396.5212194	53696	14.26869792	16.93585567
2009	175	27.22	14.44	23.71	0.0001	1122.611537	551.7000858	53688	14.48095486	17.11683667
2009	176	29.44	16.11	25.78	0	996.8158224	576.8328774	53676	14.52451389	17.48824283
2009	177	30.56	18.89	27.35	0.1578	778.0274218	499.942182	53661	14.57050347	18.13777007
2009	178	26.67	15.56	23.61	0	921.1815165	403.0805168	53641	14.57284722	17.94212855
2009	179	26.67	15.56	23.61	0.036816667	359.5379371	495.0746066	53619	14.47852431	17.1483993
2009	180	21.11	13.89	19.12	0.392533333	571.5133907	115.9421471	53592	14.45826389	17.21030395
2009	181	26.11	15.56	23.21	1.373766667	317.4763943	487.9454256	53562	14.5240625	17.1784577
2009	182	22.78	13.89	20.33	0.00705	384.479247	308.6448896	53529	14.70920139	16.95295642
2009	183	24.44	15	21.85	1.606516667	292.929466	336.5863661	53491	14.91038194	17.06240763
2009	184	22.22	15.56	20.39	0.00525	508.6422429	242.1071134	53451	14.94798611	16.98831817
2009	185	22.22	15	20.24	0	843.0129499	312.8980801	53407	14.91652778	17.03938227
2009	186	23.33	11.11	19.97	0	777.5442578	470.7284919	53359	14.78378472	16.51611964
2009	187	23.89	12.22	20.68	0	853.5576772	546.9144465	53308	14.6503125	16.29999873
2009	188	27.22	13.89	23.56	0	1176.476636	521.630458	53254	14.49420139	16.54125389
2009	189	26.11	11.67	22.14	0	808.670287	511.9485261	53196	14.33434028	16.05570914
2009	190	22.78	12.78	20.03	0	719.4379253	403.9763924	53135	14.16902778	16.11414468
2009	191	26.11	13.89	22.75	0	704.8211986	449.8026986	53071	14.08998252	16.37592263
2009	192	26.11	16.67	23.51	1.671016667	447.6598914	411.9465586	53004	13.96935764	16.95263985
2009	193	25.56	17.22	23.26	0.033116667	901.6685182	258.5955494	52933	13.86633681	17.46677048
2009	194	25	14.44	22.1	0.000566667	1029.287788	547.2468867	52860	13.82616319	16.76409421
2009	195	24.44	11.11	20.78	0.017533333	973.6450359	545.3287644	52783	14.00543403	15.99129279
2009	196	25	11.11	21.18	0.000616667	832.3341124	583.2715658	52703	13.96605903	15.95154951
2009	197	27.78	13.33	23.81	0.390866667	986.6266601	534.0230748	52620	13.89847222	17.65805117
2009	198	30	18.33	26.79	0.475958333	450.5324709	467.2298367	52535	13.79202465	17.11260424
2009	199	22.78	13.89	20.33	0.791058333	540.2532892	155.8833102	52446	13.64723776	16.79556086
2009	200	20.56	13.33	18.57	0.0065	532.8747459	289.3644068	52355	13.53854167	16.46485735
2009	201	23.89	14.44	21.29	0	675.0930108	436.8563851	52261	13.49229167	16.49872351
2009	202	26.11	15.56	23.21	0.097	693.6484257	378.3808432	52164	13.39699653	17.23818584
2009	203	25	15.56	22.4	0.500133333	372.1661505	385.9853817	52065	13.32654514	17.30206311
2009	204	25	16.67	22.71	2.318016667	320.5875517	251.6360828	51963	13.28612847	18.10391324
2009	205	25.56	17.22	23.26	0.1648	532.685326	270.6113922	51858	13.16513889	18.24939646
2009	206	26.11	15	23.06	0.383116667	481.6771529	414.0403638	51751	13.00583333	17.86443013
2009	207	27.78	16.67	24.72	0.291816667	476.1631711	380.6620358	51642	12.84309028	18.26046599
2009	208	26.11	18.33	23.97	0	732.9878967	321.1728618	51530	12.64635417	18.38234737
2009	209	27.78	17.22	24.88	0	788.7211924	453.7757215	51417	12.51067708	18.44488622
2009	210	28.89	18.33	25.99	1.169833333	256.614042	464.7742364	51300	12.47359375	18.33304527
2009	211	22.78	18.33	21.56	0.069583333	508.5388685	161.5317704	51182	12.77067708	18.92111223
2009	212	27.78	19.44	25.49	1.46685	246.626154	360.5883784	51062	12.91472222	19.01213427
2009	213	22.22	16.67	20.69	0.0032	528.009103	120.8081053	50939	12.89991319	19.1675374
2009	214	27.22	17.22	24.47	0.120166667	503.28073	498.8481015	50815	12.85832143	19.11019377
2009	215	25.56	14.44	22.5	0	667.5599216	268.3439521	50688	12.77310764	18.58394387
2009	216	25.56	15.56	22.81	0	624.4665166	499.6322653	50560	12.67677083	18.43062433
2009	217	28.33	16.67	25.12	0	756.4169314	486.2478912	50430	12.55633681	18.73414943
2009	218	26.11	12.78	22.44	0	846.0942866	315.4249034	50298	12.43112847	17.7620063
2009	219	25	12.22	21.49	0	668.5008427	421.008793	50164	12.30097222	17.02655827
2009	220	24.44	13.89	21.54	0.027166667	634.6702583	413.4717509	50029	12.23291667	17.3456921
2009	221	26.11	16.11	23.36	0.42765	442.6475989	398.2534043	49892	12.18539931	18.521139
2009	222	29.44	20	26.85	0.216141667	806.3058002	240.4607255	49754	12.10590278	19.79586393
2009	223	32.22	20	28.86	0.231791667	614.5217081	423.6187994	49614	11.96901042	19.80562637
2009	224	27.78	18.33	25.18	1.749625	449.6914643	267.2384519	49472	12.24357639	19.39451487
2009	225	26.67	16.67	23.92	0.089208333	530.6079843	271.000839	49330	12.69366319	19.1043639
2009	226	26.67	17.78	24.22	0	626.9497425	455.3363452	49186	12.5965625	19.2003656
2009	227	28.89	17.78	25.83	0	794.0750932	460.3429066	49040	12.52352431	19.6118005
2009	228	30.56	19.44	27.5	0	901.5865104	502.6245291	48894	12.46822917	19.70703327
2009	229	31.11	20	28.06	0	1105.731535	497.9915737	48746	12.38086806	20.00755901
2009	230	32.78	20.56	29.42	0.431825	611.56991	506.008612	48597	12.30088542	20.2415764
2009	231	30.56	20.56	27.81	0.015741667	676.9374703	342.366543	48446	12.20364583	20.98747883
2009	232	29.44	20	26.85	0	749.152435	324.4606289	48295	12.03902778	20.52965485
2009	233	29.44	20.56	27	0.485283333	492.655685	349.3326043	48143	11.87154514	20.68413435
2009	234	26.67	18.89	24.53	0.001233333	559.8637232	276.6667341	47990	11.73347222	20.33386644
2009	235	26.67	17.78	24.22	0	846.3101499	291.1826379	47836	11.65256944	19.90870181
2009	236	25.56	14.44	22.5	0	576.5525923	417.4341071	47681	11.60901042	18.71164586
2009	237	25.56	14.44	22.5	0	667.7699726	369.9248342	47525	11.61005208	18.49436192
2009	238	27.22	16.11	24.17	0	897.3468059	489.7512743	47368	11.56190972	18.65333005
2009	239	28.89	17.22	25.68	0.02615	534.4074612	444.7645334	47210	11.50277778	18.88681579
2009	240	19.44	16.67	18.68	0.91275	219.3969411	123.530078	47052	11.591875	18.41659058
2009	241	20	16.67	19.08	2.108033333	330.555097	69.78003347	46893	11.72619792	18.69921189
2009	242	26.11	14.44	22.9	0	761.1388359	307.5959025	46734	11.89477431	17.70273605
2009	243	22.22	11.11	19.17	0	540.8998917	459.8385189	46573	12.07135417	16.35215266
2009	244	18.89	7.78	15.83	3.33E-05	474.5543285	380.6147272	46413	12.22112847	15.19571253
2009	245	20.56	8.33	17.19	0	529.277754	515.3933254	46251	12.34789931	14.86966747
2009	246	23.33	10	19.67	0	586.9153305	497.3298513	46089	12.46098958	14.9963573
2009	247	23.89	10.56	20.22	0	627.404906	489.1549262	45927	12.57088542	15.44803263
2009	248	25	12.22	21.49	0	667.4029684	483.8440921	45764	12.6303125	15.8886812
2009	249	25.56	12.78	22.04	0	723.5662468	451.8934519	45600	12.64282986	15.99601293
2009	250	25	13.89	21.94	0.009341667	385.7817956	431.8439033	45437	12.66335069	16.37611647
2009	251	20	17.22	19.24	0.003408333	409.4359562	142.7955355	45272	12.66993056	16.6643653
2009	252	22.22	16.11	20.54	0.000916667	474.4212481	198.4138714	45108	12.68555556	16.72595863
2009	253	22.78	15	20.64	0.013333333	708.5729684	224.3282578	44943	12.8290625	16.38360603
2009	254	20	12.78	18.01	2.071841667	218.3804631	417.3933889	44778	12.88546875	15.04931047
2009	255	15	12.22	14.24	0.056508333	192.5441047	58.77826126	44613	12.89342014	15.2955757
2009	256	19.44	13.89	17.92	0	587.8569736	101.0824815	44447	12.89810764	16.03736277
2009	257	24.44	15	21.85	0	598.2023368	450.2874307	44281	12.9028125	16.50685607
2009	258	23.89	13.89	21.14	0.00035	456.242422	309.6811003	44115	12.91472222	16.27195733
2009	259	24.44	11.67	20.93	0	743.9274831	279.3870433	43949	13.03368056	15.8984923
2009	260	19.44	11.67	17.31	0.010241667	315.1932069	363.6606271	43783	13.15151042	15.31886033
2009	261	16.11	13.89	15.5	0.014991667	481.6589997	74.76055781	43617	13.28958333	15.6359254
2009	262	23.33	10	19.67	0	668.9773209	403.4859492	43450	13.42692708	14.8548639
2009	263	20	5.56	16.03	0	394.0091204	478.6553586	43284	13.5203125	14.08279767
2009	264	23.33	6.11	18.6	0	470.319669	391.6449348	43117	13.62911458	14.91440467
2009	265	23.89	14.44	21.29	0.077166667	413.0755619	397.2327744	42951	13.73102431	15.960007
2009	266	23.33	18.33	21.96	0.454383333	323.0048201	136.6025532	42784	13.83100694	17.07598717
2009	267	26.11	17.78	23.82	0	550.8505766	268.2738996	42618	16.19065972	17.53127967
2009	268	22.78	13.33	20.18	0	766.0699265	194.8089209	42452	18.09189236	16.59682817
2009	269	20	12.22	17.86	2.91225	393.1857879	392.3781236	42286	17.97338542	14.78196333
2009	270	14.44	11.67	13.68	1.75345	97.59836475	61.61553819	42120	17.89206597	14.42063983
2009	271	16.67	12.22	15.44	0.7834	392.4936873	133.3453683	41954	18.03163194	13.91818233
2009	272	20	11.11	17.56	0.0036	614.0463142	238.9354722	41788	18.29588542	13.34449133
2009	273	13.89	10.56	12.97	0.002233333	474.1497003	73.82110455	41623	18.21895833	13.06155933
2009	274	13.33	6.67	11.5	0	425.1628331	209.5889545	41458	18.12949653	11.99129267
2009	275	12.78	3.89	10.33	0.634591667	132.6601074	224.4048884	41293	18.05527778	11.18761613
2009	276	15	5	12.25	0.372508333	279.36355	198.6849582	41129	17.98520833	12.5127135
2009	277	18.89	7.78	15.83	0	395.4028318	334.5900045	40964	17.90550347	12.11972083
2009	278	15.56	7.78	13.42	0	431.4231722	198.5893109	40801	17.83878472	11.86395983
2009	279	15.56	4.44	12.5	0	370.5361453	274.8651751	40637	17.7703125	11.29502767
2009	280	17.78	5	14.26	0.267583333	564.702324	343.1908283	40474	17.71465278	12.1496414
2009	281	13.33	7.78	11.81	0	466.8655743	198.2760081	40312	17.66388889	11.98804853
2009	282	18.33	8.33	15.58	1.115225	171.0742548	316.1208372	40150	17.60309028	12.58137183
2009	283	17.78	11.67	16.1	0.475775	390.5188521	89.9000335	39989	17.58675347	12.90519267
2009	284	14.44	5	11.85	0	373.7990604	190.5242118	39828	17.56105903	10.98520655
2009	285	12.78	3.89	10.33	0	340.3996733	306.1172496	39667	17.54350694	9.909569983
2009	286	9.44	3.89	7.92	0.005983333	283.6007623	122.7895138	39508	17.51590278	10.10350045
2009	287	13.33	0	9.67	3.33E-05	252.7312396	140.6544052	39349	17.46975694	8.940656483
2009	288	7.22	0.56	5.39	2.513708333	65.32204503	130.5445354	39191	17.46473958	7.809564817
2009	289	3.89	-0.56	2.67	1.276416667	39.74306619	37.62867273	39033	17.44711806	6.53886945
2009	290	1.67	0	1.21	0.679866667	44.46893486	94.98061318	38876	17.43383681	6.80197175
2009	291	3.89	0	2.82	0.185891667	193.5736985	78.60714062	38720	17.39538194	7.369737967
2009	292	10	-1.11	6.94	0	279.1027575	231.4456854	38565	17.37098958	7.149981483
2009	293	12.78	0	9.26	0	396.3782907	362.6171155	38411	17.37883681	8.152777783
2009	294	19.44	6.67	15.93	3.33E-05	513.2498888	307.2611534	38258	17.5571875	9.0647486
2009	295	21.11	7.78	17.44	0	743.1655047	251.048364	38106	17.61503472	9.892166667
2009	296	21.67	8.33	18	0.837983333	421.5513789	283.121975	37955	17.61973958	10.68388063
2009	297	17.22	11.11	15.54	7.42895	347.2655167	104.796658	37804	17.61838542	11.86467267
2009	298	18.33	6.67	15.12	0	724.291248	122.1892452	37655	17.67085069	11.15617417
2009	299	15	2.78	11.64	0	419.3229011	327.7813535	37507	17.76102431	10.02796438
2009	300	15.56	3.33	12.19	0.064833333	201.9614038	306.1512527	37361	17.84456597	9.9535611
2009	301	13.33	7.78	11.81	1.282408333	131.5099396	122.1659446	37215	18.06909722	10.89745883
2009	302	15	11.11	13.93	4.17E-05	246.9586021	73.94646222	37071	18.19529514	11.37666567
2009	303	13.33	10	12.42	0.013566667	246.492101	70.18419036	36928	18.14284722	11.32808183
2009	304	14.44	11.11	13.53	0.110216667	391.4013184	52.43116811	36787	18.08376736	11.50586767
2009	305	16.67	5.56	13.61	0	645.7503674	51.90584223	36647	18.03189236	10.54589233
2009	306	11.67	-0.56	8.31	3.33E-05	308.9746219	265.6657452	36509	17.98241319	9.026255917
2009	307	12.78	0	9.26	0.032983333	442.227101	303.3833369	36372	18.28060764	8.666372033
2009	308	12.22	-1.11	8.56	0.001616667	384.6979668	244.7740921	36237	18.39133681	7.779666617
2009	309	7.78	-1.11	5.33	0.077083333	213.3716827	171.7477991	36103	18.26274306	7.355397917
2009	310	7.22	0.56	5.39	0	391.6988879	100.7834591	35971	18.16059028	6.804435883
2009	311	7.78	-2.22	5.03	0	335.0895566	297.2613959	35841	18.06899306	6.170619217
2009	312	13.33	-2.22	9.06	0	394.3304765	269.6603763	35713	17.98177083	7.446088667
2009	313	21.11	5.56	16.83	0	457.0171514	278.451784	35586	17.99565972	8.1939956
2009	314	19.44	5.56	15.62	0	543.8915295	167.3999895	35462	18.34815972	8.974313883
2009	315	14.44	5.56	12	0.015083333	742.7692553	122.4356175	35339	18.27892361	8.74380695
2009	316	10.56	2.22	8.26	0	635.896958	151.6451412	35219	18.12590278	8.0766905
2009	317	10	2.78	8.01	6.67E-05	609.4263692	164.1036946	35100	18.00565972	8.592113667
2009	318	15.56	5	12.65	0.003733333	362.9603322	238.5149533	34984	18.1234375	9.749885183
2009	319	14.44	4.44	11.69	1.67E-05	298.1035457	117.0745013	34870	18.33888889	9.837582867
2009	320	19.44	5.56	15.62	0	734.7430277	242.6524883	34759	18.37652778	9.799887967
2009	321	12.78	5.56	10.79	0	794.3924701	253.5184803	34649	18.2440404	9.10501165
2009	322	8.89	2.78	7.21	0	365.799792	88.41254934	34542	18.29668681	8.145310883
2009	323	10	4.44	8.47	1.212533333	110.5722992	151.899473	34438	18.29235454	8.815306467
2009	324	11.11	6.11	9.74	0.043433333	439.1936874	47.73661298	34336	18.28835708	8.90845925
2009	325	10	5	8.62	0	315.3315028	166.8771567	34237	18.29019348	8.56904445
2009	326	10.56	5	9.03	0	191.8939447	101.646753	34140	17.59937924	7.691278233
2009	327	8.33	3.89	7.11	0.046891667	215.7106532	70.20054132	34046	18.30609876	7.662626617
2009	328	9.44	4.44	8.07	0.679641667	79.92162581	80.86802531	33954	18.31969756	8.287681933
2009	329	9.44	6.67	8.68	0.029666667	100.914755	66.43101136	33866	18.30127273	8.597900933
2009	330	10.56	2.22	8.26	0.4603	98.29357923	80.64190434	33780	18.30384977	8.127690283
2009	331	10	2.22	7.86	0.246758333	323.7376413	121.5332656	33697	18.28690691	7.186889117
2009	332	5.56	1.67	4.49	0.036091667	219.0044832	87.61463981	33618	18.33294802	6.3154757
2009	333	5	0	3.62	0	273.8465278	84.91217478	33541	18.35218452	6.061325467
2009	334	16.11	0.56	11.83	0.126091667	443.3355542	219.2483091	33467	18.31700892	7.146477767
2009	335	11.11	-0.56	7.9	0.000958333	346.3394737	54.90715876	33397	17.52116231	5.903040033
2009	336	6.11	-2.22	3.82	0.656725	74.259888	103.4195483	33329	17.76522569	5.09524305
2009	337	12.78	-1.67	8.81	0.898241667	269.6985342	59.38295712	33265	17.72756944	6.534470833
2009	338	11.67	2.78	9.22	0.00245	404.3970804	50.43768949	33204	17.66107639	6.068719917
2009	339	5	-1.11	3.32	0.464875	103.075495	121.8110958	33146	17.59836806	4.86336525
2009	340	0.56	-3.89	-0.67	0.001691667	169.5391919	33.80180281	33092	17.52690972	4.09177895
2009	341	0.56	-5.56	-1.12	0.002908333	114.5965167	245.2286001	33041	17.45447917	3.546908383
2009	342	1.11	-5.56	-0.72	0.000591667	191.6584817	76.83455641	32993	17.41817708	3.82000145
2009	343	3.33	-1.11	2.11	3.267383333	93.08141013	188.3652142	32949	17.38291667	3.383344317
2009	344	6.11	-3.33	3.51	0.002883333	362.2057389	133.5681599	32909	17.34470486	2.942909783
2009	345	-2.22	-10	-4.36	1.67E-05	241.5653984	143.8377418	32872	17.29472222	2.353698067
2009	346	-2.78	-9.44	-4.61	0	243.8525446	176.1984959	32838	17.23845486	1.979540217
2009	347	2.22	-5.56	0.08	1.664683333	137.7923547	237.5724531	32808	17.16788194	2.006717217
2009	348	5	-0.56	3.47	0.000416667	126.5436996	44.08015982	32782	17.11505208	2.538182533
2009	349	7.78	2.78	6.4	0.1445	169.7839001	113.1291777	32759	17.06513889	2.910699933
2009	350	7.78	-3.89	4.57	0.01185	351.5186021	45.56076036	32740	17.01003472	2.349318667
2009	351	-1.11	-7.22	-2.79	0.001183333	194.6349855	201.7382203	32724	16.96753472	1.7363368
2009	352	-1.67	-6.67	-3.04	0	190.6060358	182.8276291	32712	17.13918403	1.400756217
2009	353	0	-6.67	-1.83	0.758841667	69.38089985	153.6604013	32704	17.83633681	1.064801183
2009	354	-4.44	-7.22	-5.21	0.020958333	141.3702265	53.46828449	32699	18.25045139	1.144172367
2009	355	0	-6.11	-1.68	0.001766667	163.3830332	215.8123812	32698	18.21012153	1.121802233
2009	356	0.56	-3.33	-0.51	0.00515	181.8306143	172.6933008	32701	18.14302083	1.189809383
2009	357	1.11	-9.44	-1.79	0	198.3102232	98.85623899	32707	18.02475694	0.652684333
2009	358	-1.67	-9.44	-3.81	0	130.5850733	238.4777802	32717	17.98079861	0.470407783
2009	359	0	-5.56	-1.53	0.436566667	66.77951248	234.3078659	32731	17.95123264	0.812317743
2009	360	6.11	-1.67	3.97	2.204083333	54.83178188	37.10045512	32749	19.04458333	1.470252667
2009	361	6.67	-2.78	4.07	0.003083333	160.2968077	43.77497753	32770	18.48322917	2.01228632
2009	362	5	-2.78	2.86	0.011341667	256.0515326	169.6062189	32794	18.24586806	1.5599052
2009	363	-2.22	-7.78	-3.75	0.049575	202.1849359	113.6074982	32822	18.10234375	0.803181533
2009	364	-4.44	-9.44	-5.82	0	146.7228171	196.630354	32854	17.99065972	0.490637362
2009	365	-1.67	-9.44	-3.81	0.426108333	66.96507975	151.2028229	32889	17.86161458	0.527598248
2010	1	0	-3.89	-1.07	0.021008333	111.5198336	73.48746939	32928	17.70673611	0.92637268
2010	2	2.78	-7.78	-0.12	0.079366667	216.0043044	95.37847484	32971	17.54295139	0.594004628
2010	3	-6.67	-11.11	-7.89	0.004641667	118.5879497	154.6334018	33017	17.39664931	0.289720833
2010	4	-6.11	-10.56	-7.33	0.005375	120.014054	71.68759282	33066	17.29760417	0.18940162
2010	5	-3.89	-7.78	-4.96	0.004258333	132.4565973	92.95321139	33119	17.25288194	0.155303472
2010	6	-2.78	-7.78	-4.15	0.024658333	121.4258647	75.10225822	33175	17.21642361	0.176428935
2010	7	-1.11	-3.89	-1.87	0.000208333	165.2800878	57.73199322	33234	17.20635417	0.16021875
2010	8	-1.67	-6.11	-2.89	0.136158333	125.2094245	73.57128123	33296	17.17857639	0.059362269
2010	9	-4.44	-8.89	-5.67	0.005166667	176.6695034	181.6427604	33362	17.17258681	-0.088073148
2010	10	-2.78	-13.33	-5.68	0	146.0890171	253.5593067	33431	17.1609375	-0.21884375
2010	11	-4.44	-13.33	-6.89	0.016116667	127.458138	226.9754318	33503	17.14642361	-0.246042823
2010	12	-2.22	-9.44	-4.21	0.00085	147.7534395	136.1318236	33579	17.11310764	-0.301344443
2010	13	-2.22	-6.67	-3.44	0	169.3752225	179.740839	33657	17.10534722	-0.251347917
2010	14	0	-7.78	-2.14	0	186.0429463	153.3004895	33738	17.09618056	-0.289144677
2010	15	7.22	-7.22	3.25	0	245.8080478	249.8199463	33822	17.07545139	-0.038535185
2010	16	5.56	2.22	4.64	0	241.7271257	52.28248435	33909	17.06680556	0.17089074
2010	17	9.44	-1.67	6.39	1.630925	67.46757635	148.7218937	33999	17.04960069	0.242331018
2010	18	3.89	-1.11	2.51	0.043708333	129.5067224	23.13844383	34092	17.03227431	0.818392362
2010	19	6.11	2.22	5.04	0.014733333	179.3813113	177.7938152	34187	17.00564236	1.225505317
2010	20	4.44	-2.22	2.61	0	253.3243194	39.5486712	34285	17.001875	1.257709493
2010	21	1.67	-7.22	-0.78	0	178.2963888	143.7039675	34386	17.01013889	0.968598835
2010	22	3.33	-6.67	0.58	0.065466667	242.7984897	258.2481841	34489	17.01574653	1.256721302
2010	23	2.78	-4.44	0.79	0	267.359495	91.14012129	34595	16.84468692	1.18495602
2010	24	5	-5	2.25	1.057183333	142.2054918	260.328883	34703	17.05897569	1.45863658
2010	25	13.33	1.67	10.12	4.141916667	284.4608514	60.18350485	34814	16.99727662	3.596964583
2010	26	11.67	-1.67	8	0.027716667	387.2378933	68.57929622	34926	16.21891609	2.875362967
2010	27	0.56	-3.89	-0.67	0.003583333	234.7107231	155.5755499	35042	17.26359375	1.93263495
2010	28	0.56	-3.89	-0.67	0.068183333	202.1964405	201.4268749	35159	17.27735069	1.267060183
2010	29	1.67	-13.33	-2.46	0	232.2756603	170.1082268	35278	17.25118056	0.498521067
2010	30	-7.22	-13.33	-8.9	0	153.0169118	244.0995504	35400	17.36946181	0.007672917
2010	31	-8.33	-13.89	-9.86	0	155.742414	125.2263545	35523	17.45678819	-0.363520138
2010	32	-2.22	-13.33	-5.28	0	191.5766279	299.5855186	35649	17.59887153	-0.440102547
2010	33	-1.11	-7.78	-2.94	0.048866667	149.8203472	228.512809	35776	18.05494792	-0.294845138
2010	34	1.67	-6.67	-0.62	0.1417	138.2543235	151.0107124	35905	17.94376215	-0.106673618
2010	35	1.11	-4.44	-0.42	0	282.8756916	100.6643254	36036	18.37174942	-0.175012268
2010	36	3.33	-4.44	1.19	0.297025	169.1546818	298.7016635	36169	18.30064931	-0.127424768
2010	37	1.11	-5.56	-0.72	1.478475	179.3266347	61.02345523	36303	18.3304103	-0.240351852
2010	38	-2.22	-15.56	-5.89	1.67E-05	140.014984	182.2186431	36440	18.53307292	-0.277269675
2010	39	-2.22	-14.44	-5.58	1.67E-05	135.2405321	329.4354477	36577	18.38987847	-0.224977547
2010	40	-1.67	-10.56	-4.11	0.08035	77.78833028	358.068696	36716	17.98317535	-0.084850695
2010	41	-2.22	-8.89	-4.06	0.891358333	61.59693208	117.8355847	36857	18.29435764	-0.081497685
2010	42	-2.78	-9.44	-4.61	0.002291667	139.1377205	93.22406463	36999	18.99314236	-0.037870371
2010	43	-1.11	-5.56	-2.33	3.33E-05	209.4065999	204.5888222	37143	18.98805556	0.019525
2010	44	1.11	-7.78	-1.33	0.000233333	211.6857332	303.6746177	37287	18.59293403	0.025363194
2010	45	-3.33	-7.78	-4.56	0.014183333	137.1988201	172.8057379	37433	18.36984201	0.06123426
2010	46	-1.11	-9.44	-3.4	0.297308333	119.729269	113.1276316	37581	18.29977431	0.04281713
2010	47	0.56	-9.44	-2.19	0.084291667	165.7281876	198.9102357	37729	18.20434028	0.057592129
2010	48	-1.11	-6.67	-2.64	0.011191667	161.4629869	223.6613584	37879	18.08430556	0.150322685
2010	49	0.56	-5	-0.97	0.007591667	215.9663021	173.4067133	38029	18.01516319	0.302247916
2010	50	2.78	0	2.01	0.000183333	320.3520665	244.1038277	38181	17.996375	0.355609722
2010	51	4.44	-3.89	2.15	0	334.1611361	271.8400682	38334	18.01428819	0.19868125
2010	52	5	-3.89	2.56	0	409.1621616	209.489852	38487	18.01477431	0.253071296
2010	53	7.22	-3.33	4.32	0.125525	253.520992	368.7452391	38642	18.00689236	0.242777314
2010	54	4.44	-2.22	2.61	0.041291667	75.61425035	124.6934635	38798	17.99230903	0.372121296
2010	55	3.33	-0.56	2.26	0	263.6064599	94.95447276	38954	18.34253472	0.512010416
2010	56	2.78	-2.22	1.4	0.043733333	207.1322165	189.4547015	39111	18.50078125	0.37173588
2010	57	0.56	-6.67	-1.43	0.315566667	120.0686571	202.4501721	39269	18.57206597	0.236916203
2010	58	-2.22	-5.56	-3.14	0.068416667	119.7091058	120.6361408	39428	18.95456597	0.348967823
2010	59	1.67	-3.89	0.14	0.043183333	187.3356345	247.9173913	39587	18.60550347	0.483394675
2010	60	4.44	-1.11	2.92	0.008058333	233.5345711	229.5644812	39747	18.41248264	0.608025927
2010	61	3.89	0	2.82	0.000425	243.5892452	150.896136	39907	18.31921875	0.591316898
2010	62	3.33	-0.56	2.26	0.048066667	207.0671659	166.480999	40068	18.24534722	0.722790047
2010	63	4.44	-2.78	2.46	0	394.4714723	105.9648594	40230	18.20107639	0.793963193
2010	64	5	-2.78	2.86	0	426.5389723	402.7179175	40392	18.15876736	1.002290745
2010	65	7.22	-5	3.86	0	483.723969	385.7700124	40555	18.11633681	1.166994902
2010	66	9.44	-4.44	5.62	0	602.7230652	429.5274218	40718	18.08161458	1.905190038
2010	67	10.56	-1.11	7.35	0	646.133554	424.2199806	40882	18.05008681	2.701254867
2010	68	11.67	-0.56	8.31	0	594.5900011	425.0315041	41046	18.03336806	3.317930083
2010	69	15.56	1.11	11.58	0.000808333	679.1629471	419.1155473	41210	17.99114583	4.066266433
2010	70	15.56	2.22	11.89	0.002408333	541.3981871	241.2807565	41375	17.93232639	5.692212967
2010	71	18.89	3.89	14.76	0.818983333	178.3883097	389.4344943	41540	17.87503472	6.418776167
2010	72	10	5	8.62	2.895616667	123.9284277	59.44796487	41705	17.85197338	5.990235883
2010	73	8.33	5	7.42	0.880633333	103.5372274	51.08695965	41870	17.80802083	5.646140983
2010	74	6.67	4.44	6.06	0.045566667	196.7819722	61.01997331	42036	17.75505208	5.535346283
2010	75	6.67	4.44	6.06	1.67E-05	528.4148953	72.57938113	42202	17.71517361	6.312006717
2010	76	15.56	-0.56	11.13	0	786.6147442	444.3782599	42368	17.69145833	6.221790283
2010	77	17.78	0	12.89	0	884.5385146	459.1053586	42534	17.72545139	6.329203717
2010	78	18.89	1.67	14.15	0	912.8883794	438.8990275	42701	17.71947917	6.91437825
2010	79	20	6.11	16.18	0	1037.163672	436.7137135	42867	17.69012153	7.655270133
2010	80	21.11	6.67	17.14	0	1167.51575	406.1786205	43033	17.67133681	8.846329867
2010	81	22.78	7.78	18.65	0.3143	561.2853258	391.3378425	43200	17.65121528	9.5929088
2010	82	18.33	7.78	15.43	0.246025	335.6198265	116.6625516	43366	17.62434028	8.540825
2010	83	8.33	2.78	6.81	0.000108333	570.5693522	45.78658432	43533	17.59673611	7.780382633
2010	84	15.56	2.78	12.04	0.200816667	517.5675446	473.6427629	43699	17.57258681	7.632457867
2010	85	18.33	-1.11	12.99	1.101366667	733.2761299	218.3236635	43865	17.55229167	7.175300467
2010	86	5	-5.56	2.1	0	443.5347271	440.7131145	44032	17.74663194	5.66445625
2010	87	8.89	-5.56	4.92	2.144625	172.9833566	444.6964866	44198	18.14324653	5.1613338
2010	88	7.22	2.78	6	0.182625	186.4774684	142.2707867	44363	18.37126736	6.515086117
2010	89	14.44	1.67	10.93	0.001841667	690.6611826	213.3475289	44529	18.32618056	6.37096065
2010	90	10	1.67	7.71	0.000325	707.0691914	252.7450218	44695	18.26838542	7.4080456
2010	91	20	5	15.88	0	1108.768058	485.0481346	44860	18.22024306	8.61501945
2010	92	26.67	6.67	21.17	0	1343.450028	482.4239626	45025	18.15779514	10.08159885
2010	93	28.33	10	23.29	0	1371.97667	439.5443775	45190	18.28449653	11.12394168
2010	94	25.56	12.22	21.89	0	1784.308152	415.2968885	45354	18.46758681	11.26383283
2010	95	21.11	7.22	17.29	0.001283333	1113.620212	444.131086	45518	18.48682292	11.094076
2010	96	26.67	8.33	21.63	0.1036	1268.346143	387.9731663	45681	18.39373264	12.56240683
2010	97	30	15.56	26.03	0	2277.840818	426.4591851	45845	18.28135417	13.071631
2010	98	29.44	12.22	24.71	0.188058333	1355.85076	362.8030226	46007	18.18789931	12.91867083
2010	99	28.89	4.44	22.17	0.03315	1122.008326	357.1354816	46169	18.1240625	10.634214
2010	100	7.22	3.89	6.31	0.008375	562.5312808	172.0321813	46331	17.99550347	9.70663025
2010	101	16.67	5.56	13.61	0	923.1641868	526.3021025	46492	17.98399306	10.01521435
2010	102	21.11	2.78	16.07	0	1318.838169	419.8590032	46653	19.19883681	10.36474623
2010	103	18.89	4.44	14.92	0.001133333	845.7859205	498.1490178	46813	18.84842014	9.720175783
2010	104	13.33	0	9.67	0	506.9135009	213.3521371	46972	18.62135417	9.382454883
2010	105	18.33	2.78	14.06	0	837.0168582	507.0907998	47131	18.44015625	10.10790603
2010	106	25.56	7.78	20.67	0.412966667	874.0810633	445.6128234	47289	18.26741319	11.46911333
2010	107	25.56	6.11	20.21	0.19925	825.0047669	307.096907	47446	18.12302083	10.04997733
2010	108	7.22	1.67	5.69	0.023616667	312.1296568	164.6130277	47602	18.09204861	8.635825383
2010	109	9.44	1.67	7.31	0	517.9129054	193.7826256	47758	18.08774306	9.116297917
2010	110	17.22	2.22	13.1	0	745.8473127	540.2093306	47912	17.97494792	9.659733783
2010	111	18.33	5	14.67	0.06255	608.2405161	467.6434311	48066	17.815	10.02811573
2010	112	20	4.44	15.72	0.056466667	751.3825465	384.1264575	48219	17.66486111	10.1299379
2010	113	20	3.33	15.42	0	1116.214058	374.5739814	48370	18.11246528	10.42650595
2010	114	19.44	3.89	15.17	0.070741667	757.695633	549.2129207	48521	18.48723958	9.822957
2010	115	16.67	6.11	13.76	1.24475	125.4044897	252.8873836	48671	18.38987847	9.73835595
2010	116	11.67	7.78	10.6	1.029241667	100.9510084	104.7715503	48819	18.11615248	9.851438883
2010	117	12.22	5.56	10.39	0.198733333	599.0647484	105.1311136	48966	17.7990625	9.65232455
2010	118	11.11	1.67	8.51	0	629.9726654	444.6354658	49112	17.50345486	8.843117583
2010	119	12.78	2.78	10.03	0	801.9290074	390.4277115	49257	17.29508681	9.58786875
2010	120	19.44	6.67	15.93	0	905.2578058	534.4429519	49401	16.93475694	11.13152448
2010	121	27.78	10	22.89	0	1358.744456	509.9958849	49543	16.52576389	12.79629167
2010	122	30.56	15.56	26.43	0.23245	594.7040993	442.2003824	49683	16.24614583	13.8604185
2010	123	23.89	17.78	22.21	1.59415	641.6816102	143.5676719	49823	15.95234375	14.67517317
2010	124	25	12.78	21.64	0.37015	871.2859522	265.4487237	49960	15.55298611	13.82927083
2010	125	22.22	8.89	18.56	0	858.2302341	435.0183725	50096	15.24793403	13.44962917
2010	126	26.67	11.11	22.39	0.27015	1221.65997	559.7388726	50231	15.02460069	13.72862267
2010	127	21.11	6.11	16.99	0	743.1969638	550.1896112	50363	14.85821181	12.830563
2010	128	20.56	8.33	17.19	0.721991667	641.877035	440.4730263	50495	14.64234375	12.707844
2010	129	16.11	2.78	12.44	0.037625	632.339722	338.6768761	50624	14.39684028	10.5355912
2010	130	8.33	2.22	6.65	0	538.1930523	218.8316958	50751	14.89326389	9.9008708
2010	131	15	1.67	11.33	1.692641667	284.1894484	593.3487522	50877	15.71107639	8.792662983
2010	132	9.44	3.33	7.76	1.605108333	95.03821326	83.68568534	51000	15.65182292	9.183681483
2010	133	16.11	6.67	13.51	0.000833333	325.1761622	122.7148523	51122	15.49559028	9.86635185
2010	134	14.44	7.78	12.61	0.162083333	322.4562471	201.930654	51241	15.36486111	11.44850783
2010	135	27.22	11.11	22.79	0.132266667	1337.088583	329.112348	51358	15.25513889	12.31841717
2010	136	21.11	10.56	18.21	0.002566667	900.2163436	512.3342255	51473	15.13048611	12.3638995
2010	137	19.44	8.89	16.54	0.335833333	439.1544302	540.8597106	51586	15.04265625	11.7624615
2010	138	15.56	8.33	13.57	0.513241667	179.6434306	137.537893	51697	14.87845486	11.04528517
2010	139	11.67	8.33	10.75	0.000191667	250.5843739	91.60142577	51805	14.66241319	11.14847183
2010	140	17.78	10	15.64	0	659.6935837	251.6616777	51910	14.42168403	12.4991945
2010	141	27.22	13.33	23.4	0	1003.374627	545.3388912	52014	14.22199653	13.42532817
2010	142	27.78	15.56	24.42	0.303733333	781.8861175	408.1011385	52114	14.01453125	13.93557183
2010	143	22.22	15	20.24	1.86885	266.716222	298.9655356	52212	13.85845486	14.43563183
2010	144	22.22	13.89	19.93	0.00325	399.917488	254.3457554	52308	13.73421875	14.68767917
2010	145	23.33	15	21.04	0.00005	644.1077855	285.619858	52400	13.53703125	15.460898
2010	146	26.67	16.11	23.76	0	895.8815694	437.1646248	52490	13.35470486	16.12501333
2010	147	30	17.78	26.64	3.33E-05	1313.359499	545.3667379	52577	13.15038194	17.06771017
2010	148	30.56	18.89	27.35	0.036416667	664.1662989	477.706668	52662	13.48428819	16.95996767
2010	149	26.11	17.78	23.82	0.000433333	684.3608582	288.9135775	52743	13.41555556	16.9942495
2010	150	26.11	13.33	22.6	0	956.8020012	353.49621	52821	13.21024306	16.84656517
2010	151	30	16.11	26.18	0.123666667	789.0704057	566.8123428	52896	12.96986111	17.062201
2010	152	30.56	17.78	27.04	0.306483333	503.5565497	397.857657	52969	12.76088542	17.26933533
2010	153	26.11	14.44	22.9	0	795.9966503	256.4735139	53038	12.54251736	17.1632365
2010	154	28.33	16.11	24.97	0.000383333	918.3023758	525.9494227	53103	12.32364583	17.65288233
2010	155	27.78	18.89	25.33	0.001325	670.8221589	376.4866665	53166	12.12803819	17.8154805
2010	156	28.33	18.89	25.74	0.226383333	534.0558894	353.5505964	53225	11.92345486	18.02828667
2010	157	27.78	18.89	25.33	0.106141667	791.4485343	294.3046144	53281	11.74788194	17.88666383
2010	158	25.56	12.78	22.04	0.0003	1096.404058	343.3457334	53334	11.59243056	16.45915267
2010	159	21.11	10	18.06	0	920.4562131	409.1885721	53383	11.45762153	15.402011
2010	160	22.22	11.67	19.32	3.927258333	255.7260075	584.9140731	53429	11.38762153	14.35362217
2010	161	17.22	12.22	15.85	0.003291667	513.1863292	71.94486222	53471	12.77024306	15.3636005
2010	162	25.56	12.78	22.04	0	685.5874432	485.7189042	53510	13.12326389	15.7367575
2010	163	25.56	13.89	22.35	0.019616667	570.430018	464.9766925	53546	13.11866319	17.05977
2010	164	31.11	19.44	27.9	0.528716667	730.595471	471.4554401	53577	13.24210069	18.25282
2010	165	28.33	16.67	25.12	0.008216667	625.1153143	296.4274096	53606	13.33876736	17.960694
2010	166	25	18.33	23.17	0.003133333	529.8318543	216.3418218	53630	13.374375	17.5981745
2010	167	23.33	17.78	21.81	0.119383333	485.7824635	253.9470146	53651	13.30192708	17.85777867
2010	168	28.33	17.22	25.28	0	1173.624179	426.1680939	53669	13.27814236	17.73842883
2010	169	23.33	11.67	20.12	0	676.6384707	428.6403746	53682	13.13637153	16.98668783
2010	170	27.22	13.89	23.56	0	778.92801	568.4982758	53693	12.94722222	17.60195883
2010	171	31.11	17.78	27.44	0.041833333	1104.615981	503.8573576	53699	12.83041667	18.483505
2010	172	28.89	16.11	25.38	0	1056.244733	419.2165092	53702	12.75081597	18.469874
2010	173	29.44	18.89	26.54	0.345633333	654.9866769	518.4865543	53701	12.774375	18.414363
2010	174	27.78	20.56	25.79	0.011108333	875.979023	286.155982	53696	12.60822917	19.31296767
2010	175	31.67	20.56	28.61	0.035641667	1198.900125	491.1815094	53688	12.38373264	19.47840967
2010	176	28.33	16.67	25.12	0	1026.932597	379.0936124	53676	12.20012153	18.99715933
2010	177	27.22	17.22	24.47	0	950.2680028	488.4065602	53661	12.01637153	18.28036817
2010	178	30	19.44	27.1	1.03355	899.8804639	445.3135283	53641	11.78671875	19.30827503
2010	179	31.67	21.11	28.76	0.1209	968.1793801	455.7525096	53619	11.58486111	19.7894444
2010	180	26.67	19.44	24.68	0.017883333	1134.858296	227.7832347	53592	11.42144097	19.38931875
2010	181	25	8.89	20.57	0	1057.861714	488.8081196	53562	11.31746528	17.33210468
2010	182	22.22	10	18.86	0	983.406447	537.1187376	53529	11.15324653	16.28866745
2010	183	22.22	10	18.86	0	883.5957742	471.9552395	53491	11.00791667	15.96549992
2010	184	25	12.22	21.49	0	1060.72511	574.589127	53451	10.88645833	16.36598365
2010	185	30	13.33	25.42	0	1367.643937	574.0739123	53407	10.79380208	17.21038662
2010	186	32.78	18.33	28.81	0	1530.310727	567.0125103	53359	10.75130208	18.43653382
2010	187	34.44	20.56	30.62	0	1773.996979	474.3875505	53308	10.69898438	19.31952563
2010	188	33.89	21.11	30.38	0	1710.002764	491.4306764	53254	10.65074826	20.02090323
2010	189	33.89	21.11	30.38	0	1870.65705	495.9685833	53196	10.58469271	20.17848253
2010	190	34.44	22.22	31.08	2.081583333	1197.390857	477.2090366	53135	10.49732813	20.4236936
2010	191	32.78	18.33	28.81	1.728766667	1312.467067	392.1199961	53071	10.42832986	20.20084825
2010	192	27.78	14.44	24.11	0	1133.416809	525.2394781	53004	10.35480035	19.30888973
2010	193	30	17.22	26.49	0.73635	682.3568476	565.9037271	52933	10.31052778	18.846274
2010	194	27.78	19.44	25.49	0.059183333	456.26382	343.7496873	52860	10.45621701	19.28224325
2010	195	25.56	19.44	23.88	1.139066667	524.0691574	205.6259542	52783	10.62001563	19.86386675
2010	196	28.33	18.33	25.58	0	848.8172994	311.7699803	52703	10.65246875	20.51307767
2010	197	30.56	20	27.65	0.48655	485.2050045	498.0848544	52620	10.7231875	20.27419867
2010	198	29.44	18.89	26.54	0.000166667	831.2836514	323.3046613	52535	10.86020833	20.522058
2010	199	30	18.89	26.94	0.0028	1335.872475	491.9118398	52446	10.86762153	21.09294767
2010	200	31.67	22.22	29.07	0.00055	1172.862153	513.3329341	52355	10.82378472	20.96582317
2010	201	30.56	18.33	27.19	0.4471	546.8714812	457.4951757	52261	10.75225174	20.39788183
2010	202	29.44	18.89	26.54	0.416091667	750.04759	324.4117022	52164	10.668	20.79341983
2010	203	31.11	18.89	27.75	0.344708333	979.5500502	413.1195201	52065	10.56155035	20.67530133
2010	204	29.44	20	26.85	0.001166667	1130.484838	512.9275792	51963	11.72171701	21.33849767
2010	205	33.89	22.22	30.68	0.002166667	1667.306151	436.1511206	51858	12.31222222	22.2691565
2010	206	32.78	22.22	29.88	0.206216667	1058.341802	473.7849721	51751	12.36064236	21.73174067
2010	207	27.22	17.22	24.47	0	1104.311093	278.1241724	51642	12.38892361	20.38504533
2010	208	27.78	16.11	24.57	0	989.1303315	557.943138	51530	12.36840278	19.73962867
2010	209	29.44	18.33	26.39	0	1062.703218	524.9891668	51417	12.30309028	20.15907417
2010	210	30.56	20	27.65	0.312433333	1242.692256	493.7444485	51300	12.22039931	20.830581
2010	211	28.89	14.44	24.92	0	1191.594979	453.1106708	51182	12.11053819	19.49659167
2010	212	25.56	13.33	22.19	0	1046.683227	486.1202815	51062	11.99027778	18.81577583
2010	213	26.67	15.56	23.61	0.0018	1014.72537	461.8283514	50939	11.86256944	19.33938283
2010	214	27.78	18.33	25.18	0	799.9971262	400.0751538	50815	11.71307292	19.10762783
2010	215	25.56	19.44	23.88	0.12175	482.7329491	314.7455601	50688	11.54932292	19.502351
2010	216	28.33	21.67	26.5	0.1883	643.2302471	246.378937	50560	11.39105903	20.543487
2010	217	32.22	20.56	29.01	0.015533333	1043.26288	354.5024543	50430	11.14104167	20.74403933
2010	218	28.33	18.33	25.58	0.19875	980.2004728	362.3641324	50298	11.05690972	20.11432783
2010	219	25.56	15	22.65	0	950.096899	385.9447115	50164	10.87065625	19.15767588
2010	220	26.67	13.89	23.15	0	1108.238357	453.1305739	50029	10.7192934	18.72209362
2010	221	29.44	15	25.47	0	1455.063619	497.1067508	49892	10.57561111	19.1443672
2010	222	32.22	17.22	28.1	0	1413.836914	499.3069534	49754	10.43446528	20.39187183
2010	223	32.22	20	28.86	0	1543.52506	380.0443595	49614	10.31387674	20.70883933
2010	224	31.67	20	28.46	1.727325	407.2173777	493.2345641	49472	10.18667014	20.33607783
2010	225	23.33	16.67	21.5	0.066308333	456.9723593	139.0694912	49330	10.1510816	19.4029686
2010	226	21.67	17.22	20.44	0	729.8387913	167.0089228	49186	10.17838542	19.01914017
2010	227	24.44	19.44	23.07	0.923683333	306.2990266	203.9082954	49040	10.14198438	19.1863359
2010	228	27.22	19.44	25.08	0.000133333	894.7940435	214.6853603	48894	10.08114236	20.3943882
2010	229	30	16.67	26.33	0	1297.342299	436.8670836	48746	10.06631771	19.55582327
2010	230	27.78	17.78	25.03	0	866.6201794	492.1522131	48597	10.33755556	19.01600127
2010	231	25.56	14.44	22.5	0	779.0633917	262.2999503	48446	10.4314566	18.78472713
2010	232	30	16.11	26.18	0	1085.611031	453.8654566	48295	10.47877778	19.0944217
2010	233	29.44	16.67	25.93	0.0001	1022.523487	446.9218041	48143	10.50824132	19.338694
2010	234	28.33	17.22	25.28	5.16885	519.1962818	295.9438846	47990	10.48047569	20.0564575
2010	235	26.11	17.22	23.67	0.204908333	405.6654593	245.116996	47836	10.45151389	19.13735567
2010	236	20.56	15	19.03	0.027841667	371.05711	149.7196083	47681	10.427125	18.59942135
2010	237	20.56	15	19.03	0.044958333	441.8330614	166.0877284	47525	10.39068403	18.5540616
2010	238	25	16.67	22.71	0.000158333	877.2703059	268.8203044	47368	10.31941146	18.49079867
2010	239	24.44	10.56	20.62	0	748.6583543	437.9045067	47210	10.24292535	17.46827048
2010	240	25	10.56	21.03	0	779.5339742	526.463624	47052	10.24965972	17.00308023
2010	241	27.22	12.22	23.1	0	791.4642562	514.3241174	46893	10.57985764	17.81763608
2010	242	30.56	14.44	26.13	0	1024.022671	497.870281	46734	10.7659375	18.23083208
2010	243	30.56	16.67	26.74	0	1047.837738	489.8717813	46573	11.38193576	18.858482
2010	244	32.22	18.33	28.4	0	1262.067289	466.8298803	46413	12.80217014	19.176745
2010	245	32.22	18.33	28.4	0	1320.47912	471.522426	46251	12.95163194	19.42058567
2010	246	32.78	18.33	28.81	0.00065	1314.304528	480.9634848	46089	13.04756944	19.24038933
2010	247	31.67	15	27.08	0	1431.1609	382.0751118	45927	13.19513889	17.8378315
2010	248	19.44	10.56	17	0	721.8798257	252.6306031	45764	13.325	16.02503833
2010	249	20	7.78	16.64	0	679.7199161	395.6765939	45600	13.42340278	15.42989667
2010	250	25.56	8.89	20.97	0	1107.261922	434.9141797	45437	13.49039931	16.72624633
2010	251	31.67	15	27.08	0	1890.012094	469.7240038	45272	13.47715278	17.63306667
2010	252	23.89	13.33	20.99	0.000183333	1038.530398	478.1289884	45108	13.43835069	16.47345883
2010	253	19.44	12.78	17.61	6.67E-05	777.2339625	218.7887114	44943	13.42548611	16.04587
2010	254	20	8.33	16.79	0	748.6275351	275.3274531	44778	13.43607639	15.404432
2010	255	22.78	10	19.26	0.660916667	216.9822357	422.7706336	44613	13.45373264	15.72037367
2010	256	20.56	9.44	17.5	0.0016	619.4254481	132.0922748	44447	13.43204861	15.831157
2010	257	25	11.11	21.18	0	1061.000073	426.012566	44281	13.41364583	15.475162
2010	258	22.78	11.11	19.57	0	990.0210669	471.9286534	44115	13.37986111	15.29362683
2010	259	23.89	10.56	20.22	2.125225	372.4080067	473.4174598	43949	13.31307292	14.41124117
2010	260	17.78	11.67	16.1	0.484125	375.0209321	79.16063975	43783	13.27078125	15.3171325
2010	261	17.78	8.89	15.33	0.005	375.7720653	224.3699129	43617	13.20116319	15.01316017
2010	262	22.78	8.89	18.96	0.0195	480.5608047	424.4368375	43450	13.21527778	15.55488183
2010	263	26.11	11.67	22.14	3.33E-05	1081.792827	311.3474716	43284	13.23243056	15.49155033
2010	264	20.56	7.22	16.89	0	643.9765751	461.0752835	43117	13.17763889	14.45450183
2010	265	25	7.22	20.11	0.01325	635.0261859	449.4570413	42951	13.11907986	15.485618
2010	266	30.56	15	26.28	0.00045	782.4224953	349.3204799	42784	13.0625	16.52706667
2010	267	28.89	16.11	25.38	0	1217.707535	325.9649126	42618	13.00678819	17.43428883
2010	268	31.11	17.22	27.29	0	1751.510632	376.5539777	42452	12.99088542	17.64784318
2010	269	25.56	10	21.28	0.000125	831.7510312	437.8432514	42286	13.00133681	16.39775938
2010	270	18.33	10	16.04	1.195225	164.7892971	248.7533197	42120	13.23130208	16.3030759
2010	271	20	13.33	18.17	1.661683333	426.1130836	91.63621689	41954	13.25185764	17.17121217
2010	272	22.78	12.22	19.88	0	487.310112	276.002704	41788	13.24703125	15.9976159
2010	273	18.33	12.22	16.65	6.583841667	126.6738748	229.2961842	41623	13.24505208	15.71155092
2010	274	17.78	12.22	16.25	0.844658333	547.663525	16.13001207	41458	13.22029514	15.79209152
2010	275	18.33	5.56	14.82	0	426.5965178	249.8053214	41293	13.20925347	14.53689807
2010	276	16.67	5.56	13.61	0	575.8699083	421.9836968	41129	13.18383681	14.00777527
2010	277	16.67	6.11	13.76	0.53855	278.6348763	310.1275931	40964	13.17798611	13.16021602
2010	278	9.44	6.67	8.68	0.212733333	133.5831472	92.92981845	40801	13.19342014	12.22036588
2010	279	11.11	7.78	10.19	0.127425	190.0250428	65.5485144	40637	13.27388889	11.97951245
2010	280	12.22	8.33	11.15	0.039575	463.5628944	78.11882934	40474	13.32784722	12.52746153
2010	281	18.89	7.22	15.68	0	655.8766755	310.1307193	40312	13.36105903	12.59559202
2010	282	22.22	7.78	18.25	0	779.6958025	400.1532108	40150	13.38918403	12.95938407
2010	283	22.78	6.67	18.35	0	692.8307783	381.7530039	39989	13.41956597	13.22031737
2010	284	25	6.67	19.96	0.066072917	741.3670975	336.1901507	39828	13.47029514	14.03666288
2010	285	24.44	12.78	21.24	0.1991125	521.5284483	252.0603573	39667	13.51828125	14.40265307
2010	286	20.56	3.33	15.82	0.09274375	566.6405233	314.0153272	39508	13.53135417	13.40818554
2010	287	15.56	3.89	12.35	0.14305	231.1095259	399.9814464	39349	13.51895833	12.48151524
2010	288	12.22	6.11	10.54	0.1139375	468.0303829	70.81939046	39191	13.53958333	12.24523832
2010	289	13.89	6.11	11.75	0.114870833	761.6832293	277.6358346	39033	13.57102431	12.18860042
2010	290	16.11	6.67	13.51	0.122252083	685.4528063	381.2517146	38876	13.58940972	12.04300834
2010	291	19.44	5	15.47	0.162904167	555.0569026	354.5389821	38720	13.91694444	11.7922072
2010	292	11.67	5.56	9.99	0.1466625	282.4429187	111.9983908	38565	14.01857639	11.53524094
2010	293	13.33	2.78	10.43	0.1443875	414.7898982	244.9870942	38411	14.09206597	10.93046638
2010	294	15.56	3.33	12.19	0.1517625	699.3025205	311.7516877	38258	14.16998264	10.7302778
2010	295	13.33	3.33	10.58	0.159147917	490.3280585	253.1490116	38106	14.21880208	10.40743406
2010	296	10.56	3.33	8.57	0.166525	557.1833776	177.8761261	37955	14.29300347	10.2965939
2010	297	21.67	8.89	18.15	0.1739	1012.377238	269.2128027	37804	14.38421875	11.25250118
2010	298	22.78	10	19.26	0.189858333	789.3058313	262.6709081	37655	14.40420139	12.05917473
2010	299	20.56	10.56	17.81	0.18865625	358.6443465	143.0243531	37507	14.66092014	12.63871772
2010	300	20.56	11.11	17.96	0.5158375	632.6654051	187.0198432	37361	15.04154514	13.3486386
2010	301	21.11	12.22	18.67	0.212004167	1297.96509	297.0519872	37215	15.22336806	12.82423333
2010	302	17.78	6.11	14.57	0.217233333	689.7388036	318.653516	37071	15.2784375	11.80977778
2010	303	9.44	1.11	7.15	0.2224625	444.2267866	138.5059826	36928	15.41729167	10.70099482
2010	304	14.44	1.67	10.93	0.22984375	808.029403	230.8757289	36787	15.87819444	10.50486597
2010	305	10.56	0	7.65	0.232933333	472.1719969	260.1787841	36647	18.38024306	9.941037032
2010	306	8.89	-2.78	5.68	0.240304167	319.3909071	329.0117176	36509	18.08715278	8.970407247
2010	307	8.89	-3.33	5.53	0.247679167	312.2789986	325.9270272	36372	17.84822917	8.417784896
2010	308	11.67	-1.67	8	0.604264583	83.69635213	313.8776047	36237	17.6990625	8.722553301
2010	309	7.22	4.44	6.46	0.2888375	175.9257212	48.33008456	36103	17.57651042	8.858722728
2010	310	7.78	0	5.64	0.269820833	172.1142941	89.12819506	35971	17.49076389	8.423793521
2010	311	6.67	-1.67	4.38	0.277195833	210.7492259	129.9793067	35841	17.41776042	7.886447289
2010	312	7.22	-1.67	4.78	0.284570833	361.6596132	163.2881638	35713	17.34397569	7.829187946
2010	313	12.78	1.67	9.72	0.291952083	368.5225518	296.0368543	35586	17.27227431	8.149008484
2010	314	13.33	2.78	10.43	0.2993375	419.5066571	273.3077605	35462	17.20982639	8.619248341
2010	315	15.56	-0.56	11.13	0.25615	492.2783269	290.7410789	35339	17.13272569	8.298659873
2010	316	14.44	-1.67	10.01	0	481.0964535	295.8834626	35219	17.08772569	7.773909928
2010	317	15.56	-2.78	10.51	0	559.4893169	299.5175927	35100	17.16083333	7.381788416
2010	318	16.11	-2.22	11.07	0	579.0470585	294.61124	34984	17.20381944	7.210595822
2010	319	16.11	1.11	11.99	0	372.2928587	217.5080413	34870	17.21552083	7.926034503
2010	320	11.11	5.56	9.58	0.537322917	152.0840852	178.0788497	34759	17.21161458	8.220106238
2010	321	13.33	6.11	11.35	0.203147917	320.9556925	39.125436	34649	17.17831597	8.635489766
2010	322	10	4.44	8.47	0	232.0091213	59.37399829	34542	17.11197917	8.393011816
2010	323	7.22	0.56	5.39	0.0064375	269.3813889	56.17403275	34438	17.06678819	7.490818883
2010	324	8.33	1.67	6.5	0	277.0268488	202.9844625	34336	17.02092014	6.770300967
2010	325	9.44	0	6.85	0	207.7341228	93.64650455	34237	16.9534375	6.267767417
2010	326	10	0.56	7.4	0	298.3917824	225.17771	34140	16.92315972	6.275037567
2010	327	16.11	7.78	13.82	0	539.9005792	206.6430711	34046	16.90567708	5.522082883
2010	328	16.67	1.11	12.39	0	692.4428835	79.68162422	33954	16.87862847	5.367075917
2010	329	6.11	1.11	4.74	0.507597917	181.2210866	207.8124832	33866	16.85774306	4.692047733
2010	330	6.67	1.67	5.29	0.2343625	222.6173954	27.26299324	33780	16.83927083	4.507303117
2010	331	5.56	-1.67	3.57	0.0618	302.8723865	202.8196364	33697	16.81498264	4.25115525
2010	332	1.67	-1.11	0.9	0.027897917	235.2704458	64.86852393	33618	16.76315972	4.071105683
2010	333	5.56	-4.44	2.81	0	198.9130146	248.4065937	33541	16.71769097	3.63967765
2010	334	7.22	-4.44	4.01	0.559314583	144.0269041	234.9342417	33467	16.68387153	3.76357255
2010	335	15.56	6.11	12.96	0.634014583	217.6643005	30.39170332	33397	16.64814236	4.9113523
2010	336	8.89	-3.33	5.53	0	225.6602918	51.29906739	33329	16.62953125	4.656933883
2010	337	0	-3.89	-1.07	0	141.7869422	101.3862559	33265	16.62677083	3.979707083
2010	338	0.56	-3.33	-0.51	0	141.1717228	91.56991644	33204	16.64395833	3.623346433
2010	339	1.11	-5	-0.57	0	208.3396032	117.1891142	33146	16.64298611	3.401642
2010	340	0	-4.44	-1.22	0	185.6257966	156.5760824	33092	16.63326389	2.840411183
2010	341	-1.67	-5.56	-2.74	0	148.6670345	97.51332483	33041	16.60743056	2.220637133
2010	342	-2.22	-6.67	-3.44	0	170.1421997	94.53406981	32993	16.58463542	1.912908867
2010	343	-2.22	-7.78	-3.75	0	169.1102716	121.9008939	32949	16.56734375	1.610951267
2010	344	-1.11	-7.78	-2.94	0.8478	92.37163869	240.2871292	32909	16.54694444	1.4020664
2010	345	-1.11	-6.11	-2.49	0	125.3133763	58.73027607	32872	16.52126736	1.261899918
2010	346	3.33	-6.67	0.58	6.78475	53.99989583	184.7153383	32838	16.49381944	1.35168025
2010	347	6.67	-5.56	3.31	0.14025	286.7707843	37.19490528	32808	16.46329861	1.31521535
2010	348	-2.78	-10.56	-4.92	0.25175	157.1837901	159.8943588	32782	16.43720486	1.07571605
2010	349	-6.11	-10	-7.18	0.0091	133.9123063	113.3473621	32759	16.42095486	0.588993583
2010	350	-4.44	-10	-5.97	0.00675	116.3516088	122.854565	32740	16.37736111	0.378364073
2010	351	-3.89	-10	-5.57	0	127.3264968	114.934757	32724	16.36850694	0.236710285
2010	352	-1.11	-6.67	-2.64	0	177.9268931	126.4492783	32712	16.36710069	0.340416425
2010	353	-0.56	-10.56	-3.31	0	125.3856509	149.8745502	32704	16.33279514	0.26541224
2010	354	-1.67	-11.11	-4.26	0.0354	122.916714	172.0518398	32699	16.29246528	0.289377985
2010	355	-1.67	-4.44	-2.43	0.0081	206.3356866	59.14774749	32698	16.30741319	0.294307772
2010	356	1.67	-5	-0.17	0	258.9447398	225.5153674	32701	16.31338542	0.455309307
2010	357	2.78	-3.89	0.94	0.0417	253.2793513	133.522203	32707	16.29175347	0.623204483
2010	358	1.11	-5	-0.57	0.0011	228.4464871	126.1794369	32717	16.28307292	0.521636233
2010	359	0.56	-5	-0.97	0.0005	180.6076639	204.460156	32731	16.23619792	0.517617083
2010	360	-1.11	-6.11	-2.49	0.0301	171.8522103	82.02670599	32749	16.19739583	0.503288533
2010	361	-2.78	-8.89	-4.46	0	194.8111694	81.17225884	32770	16.16203125	0.45909635
2010	362	-2.22	-8.89	-4.06	0.0014	193.5319113	227.5759682	32794	16.14833333	0.625214433
2010	363	1.11	-6.11	-0.88	0	209.7445961	184.6841298	32822	16.13572917	0.58925275
2010	364	4.44	-7.22	1.24	0.0145	149.7636122	205.1725519	32854	16.15121528	0.549122383
2010	365	3.33	-7.22	0.43	0	147.0148056	107.8269588	32889	16.14428819	0.429551947
