"Shalehills,"	2012	:	input	for	MTCLIM	v4.3				
MTCLIM	v4.3	OUTPUT	FILE	:	Mon	Jan	16	16:32:50	2012	
	yday	Tmax	Tmin	Tday	prcp	VPD	srad	daylen	SoilW	SoilT
		(degC)	(degC)	(degC)	(cm)	(Pa)	(Wm-2)	(s)	(%)	(deg C)
2008	1	4.44	-2.78	2.46	0.945	162.1754386	104.3159563	32928	18.68243056	1.98562999
2008	2	3.89	-5.56	1.29	0.02	187.1368421	235.5194646	32971	18.80388889	1.607185458
2008	3	-3.33	-11.11	-5.47	0	101.5438596	149.4687472	33017	19.05731481	1.3010022
2008	4	-4.44	-10.56	-6.13	0	79.34736842	204.7789935	33066	18.77085648	0.892287663
2008	5	3.33	-9.44	-0.18	0	213.3263158	179.6138894	33119	18.3550463	0.270235081
2008	6	5.56	-0.56	3.88	0.09	153.9578947	210.9641491	33175	18.08956019	0.271250161
2008	7	7.78	5	7.01	0.035	91.50175439	195.7890122	33234	18.19569444	1.212635815
2008	8	18.89	6.11	15.38	0.025	564.2736842	209.7493195	33296	18.63011574	3.084797986
2008	9	19.44	8.33	16.39	0.06	537.6280702	146.7363216	33362	18.67034722	5.012588925
2008	10	11.67	-0.56	8.31	0	356.7017544	199.1270966	33431	18.52201389	4.952372752
2008	11	7.78	-0.56	5.49	2.36	221.4175439	98.95188093	33503	18.44208333	4.276718303
2008	12	10.56	2.78	8.42	0	250.8	214.6721249	33579	18.92599068	3.770016462
2008	13	6.11	-2.22	3.82	0	199.2421053	131.5721537	33657	19.89270833	3.74169895
2008	14	3.89	-2.22	2.21	0.12	138.4210526	108.5815963	33738	18.86006944	3.131347552
2008	15	2.78	-2.78	1.25	0	119.7754386	158.8699654	33822	18.48055556	2.79769908
2008	16	-1.11	-2.78	-1.57	0	32.70175439	171.2831111	33909	18.31770833	2.654006957
2008	17	0	-3.33	-0.92	0.57	65.66315789	55.2103615	33999	18.14731481	2.149081294
2008	18	2.22	-2.22	1	0.33	96.6877193	262.0890387	34092	18.10724537	2.08925867
2008	19	2.78	-6.67	0.18	0	173.9508772	102.5193224	34187	18.10423611	1.846934865
2008	20	-1.11	-12.22	-4.17	0	146.877193	199.6165806	34285	18.29127315	1.792562466
2008	21	-10	-13.89	-11.07	0	37.60701754	298.9044582	34386	20.41	1.344159896
2008	22	-5	-13.89	-7.44	0	98.44210526	76.44017541	34489	19.19641204	0.884443809
2008	23	2.78	-6.11	0.33	0	167.4526316	306.510658	34595	18.76189815	0.295707785
2008	24	-2.78	-7.78	-4.15	0	76.32280702	174.6784443	34703	18.46895833	0.21810746
2008	25	-2.22	-10	-4.36	0	109.6210526	313.7015207	34814	18.40694444	0.171631818
2008	26	-3.89	-10	-5.57	0.04	82.45614035	140.4298068	34926	18.17018519	0.195194815
2008	27	-2.78	-8.33	-4.31	0	82.82807018	166.9286674	35042	17.93409722	0.486059027
2008	28	-0.56	-5	-1.78	0	80.60350877	208.8326788	35159	17.87050926	0.073528472
2008	29	2.22	-2.22	1	0.4	96.6877193	58.52292579	35278	17.8806713	0.1692792
2008	30	5.56	-1.11	3.72	1.5	164.3087719	323.8448002	35400	17.9199537	0.202406437
2008	31	0.56	-8.89	-2.04	0	149.9578947	302.9510616	35523	18.10872685	0.265287212
2008	32	1.11	-7.78	-1.33	2.715	149.9017544	45.1952078	35649	18.89738426	0.369245269
2008	33	2.78	-2.22	1.4	0.005	110.245614	71.58114549	35776	20.39844907	0.386209188
2008	34	1.11	-5.56	-0.72	0	123.1789474	254.2935964	35905	19.21888889	0.652532606
2008	35	6.11	-5	3.06	0.02	238.077193	37.47880507	36036	18.56289352	0.609426353
2008	36	5	0.56	3.78	1.02	115.4596491	78.69804916	36169	18.21108796	0.578380984
2008	37	13.33	3.33	10.58	0.4	351.2280702	76.63240256	36303	17.98284722	0.110542851
2008	38	16.67	1.67	12.54	1.01	536.0421053	44.7070387	36440	17.94516204	0.488986987
2008	39	3.33	-1.11	2.11	0.06	103.8526316	120.5515515	36577	18.13114219	1.73463888
2008	40	2.22	-2.22	1	0.78	96.6877193	134.9607666	36716	18.74203704	1.185453629
2008	41	4.44	-1.67	2.76	0.21	143.4385965	177.1120548	36857	19.80296296	0.704218438
2008	42	-1.11	-16.67	-5.39	0	170.5473684	353.3436523	36999	19.37657407	0.45277809
2008	43	-8.89	-16.67	-11.03	1.91	68.41403509	66.1621665	37143	18.64324074	0.308974305
2008	44	-3.33	-11.67	-5.63	0.57	106.2385965	86.49708714	37287	18.11384259	0.085021001
2008	45	0.56	-7.78	-1.74	0	138.5403509	378.3716231	37433	17.97710648	-0.142639665
2008	46	2.22	-7.78	-0.53	0	173.5438596	47.00858972	37581	18.02335648	-0.131321892
2008	47	2.78	-11.11	-1.04	0	213.5157895	353.5323452	37729	19.4250463	-0.060985867
2008	48	2.22	-10.56	-1.29	0.23	197.9649123	111.3644561	37879	21.38627315	0.361980076
2008	49	8.89	-0.56	6.29	0.44	257.7403509	146.1644686	38029	19.93481481	0.394781893
2008	50	8.33	-4.44	4.82	0	295.9298246	262.993081	38181	19.70259259	0.657314366
2008	51	-1.11	-10	-3.56	0	128.9964912	273.0151019	38334	19.94569444	0.610389516
2008	52	-3.89	-12.78	-6.33	0	106.4491228	400.3263652	38487	20.18858796	0.357798417
2008	53	-2.22	-12.78	-5.13	1.05	132.2526316	79.9223148	38642	19.04680556	0.164884307
2008	54	-2.78	-5.56	-3.54	0.08	46.58245614	202.3368417	38798	18.64050926	0.305468332
2008	55	1.67	-8.89	-1.24	0	172.5333333	415.7091916	38954	18.4224537	0.376742508
2008	56	5	-8.89	1.18	0	247.7824561	326.9520545	39111	18.28310185	0.253918849
2008	57	2.78	-5	0.64	0.79	153.2701754	47.88163107	39269	18.14071759	0.3942552
2008	58	1.67	-3.33	0.29	0.01	102.5754386	220.4691536	39428	18.22291667	0.219734508
2008	59	-2.22	-11.67	-4.82	0	124.0421053	361.1990384	39587	18.57416667	0.061989478
2008	60	1.67	-12.22	-2.15	1.565	197.9789474	237.3172495	39747	18.46928241	-0.133515002
2008	61	1.67	-5.56	-0.32	0	135.3192982	262.7038835	39907	18.28543981	-0.113632266
2008	62	4.44	-5.56	1.69	0	200.9473684	345.1270946	40068	18.554375	-0.025818963
2008	63	15.56	1.67	11.74	2.165	483.3684211	407.5307673	40230	20.16837963	0.29539159
2008	64	7.78	1.67	6.1	3.805	176.9894737	20.25625546	40392	19.22708333	0.217023958
2008	65	4.44	-2.78	2.46	0	162.1754386	91.54120951	40555	18.75321759	0.455785487
2008	66	7.78	-2.78	4.88	1.01	257.2491228	415.0217402	40718	18.78393519	1.20440219
2008	67	7.22	-1.11	4.93	2.03	213.8035088	110.2441554	40882	19.51148148	1.211442515
2008	68	3.33	-7.22	0.43	0	192.8140351	38.37885143	41046	18.99738426	1.713988617
2008	69	0	-6.67	-1.83	0	114.4140351	421.2219848	41210	18.65081019	1.472068237
2008	70	6.11	-3.89	3.36	0	223.8807018	303.0222452	41375	18.46675926	1.460636767
2008	71	6.11	1.11	4.74	0.01	136.2807018	262.8845189	41540	18.50613426	1.68601767
2008	72	4.44	-3.33	2.31	0	170.8210526	149.520804	41705	19.37293981	1.796911417
2008	73	13.33	-3.33	8.75	0.015	456.6035088	405.8033154	41870	18.89465278	2.226991283
2008	74	15	3.89	11.94	0.335	414.0701754	318.6961205	42036	18.58543981	2.814563958
2008	75	10	1.11	7.56	0	265.5368421	244.2521433	42202	18.41289352	3.845345237
2008	76	5.56	-3.89	2.96	0	208.5403509	161.4941417	42368	18.38685185	4.12131104
2008	77	7.78	-3.89	4.57	0.1	272.2807018	457.0594619	42534	18.33900463	3.718096093
2008	78	5.56	2.22	4.64	1.52	93.68421053	52.84657761	42701	18.24118863	3.481184735
2008	79	12.78	1.67	9.72	0.21	362.0140351	75.88346124	42867	19.5362037	4.023746465
2008	80	3.89	-2.78	2.06	0	147.677193	332.8824092	43033	19.33678241	4.278271897
2008	81	6.11	-2.78	3.67	1.19	207.922807	463.6047799	43200	18.88645833	4.021189435
2008	82	5.56	-6.11	2.35	0	235.8736842	282.0516081	43366	18.60486111	3.507170728
2008	83	6.11	-5.56	2.9	0	244.554386	505.1597539	43533	18.43928241	3.147618268
2008	84	5.56	-4.44	2.81	0	216	371.9571296	43699	18.33166667	2.584041985
2008	85	9.44	-3.89	5.78	0	324.4350877	474.0085953	43865	18.27601852	2.91063536
2008	86	12.22	1.67	9.32	0.125	339.4175439	320.2919068	44032	19.46800926	4.120339087
2008	87	6.67	2.22	5.44	0.615	128.1684211	57.39256047	44198	19.55548611	4.161830667
2008	88	7.22	-2.78	4.47	0	240.3929825	69.45519095	44363	19.22863426	4.691102293
2008	89	7.22	-4.44	4.01	0	262.7508772	526.1348243	44529	18.91388889	4.07767142
2008	90	10	-4.44	6.03	0	348.8912281	493.365953	44695	18.65731481	4.031716132
2008	91	13.33	4.44	10.89	0.155	325.3473684	223.2477723	44860	18.47543981	4.7298252
2008	92	21.11	1.11	15.61	0.005	779.5157895	171.367319	45025	18.24972222	6.243084637
2008	93	8.33	-2.78	5.28	0	274.5263158	462.776095	45190	19.90678241	6.069643875
2008	94	9.44	-2.22	6.24	0.9	302.6736842	314.7906791	45354	19.83974537	5.313235883
2008	95	11.67	3.33	9.38	0.19	281.5789474	111.4313535	45518	19.21175926	5.493004633
2008	96	12.22	4.44	10.08	0	277.5157895	275.361481	45681	18.90944444	6.196472683
2008	97	15	4.44	12.1	0	401.4596491	402.0559508	45845	18.7025463	6.580615733
2008	98	8.33	5.56	7.57	0	94.65263158	125.2460627	46007	18.50930556	6.5787051
2008	99	14.44	6.11	12.15	0	332.6807018	259.8468048	46169	19.2562963	7.036100467
2008	100	16.11	6.11	13.36	0	414.5754386	254.8387235	46331	19.89652778	7.830930333
2008	101	20.56	6.67	16.74	0.74	649.7052632	476.2030589	46492	20.67546296	8.774187267
2008	102	20	11.67	17.71	0.19	459.0105263	142.7999516	46653	19.53141204	9.707549483
2008	103	18.33	3.89	14.36	0.225	581.7052632	454.6584113	46813	19.02916667	10.40617728
2008	104	8.33	0.56	6.19	0.015	218.6315789	168.4734237	46972	18.70202797	8.9754287
2008	105	10.56	-2.22	7.04	0	340.6947368	398.9180828	47131	18.53949074	7.85522545
2008	106	15	0	10.88	0	484.5333333	558.4221479	47289	18.88150463	7.511978233
2008	107	20	2.22	15.11	0	701.6982456	549.2612408	47446	20.03085648	7.946122683
2008	108	26.11	7.22	20.92	0	1022.021053	551.5966285	47602	19.22685185	8.8155773
2008	109	28.33	10.56	23.44	0	1130.484211	535.1753364	47758	18.90550926	10.29534077
2008	110	27.22	12.22	23.1	3.12	984.1192982	414.5985677	47912	18.67928241	11.3890745
2008	111	15.56	12.78	14.79	0.24	144.8140351	114.2282131	48066	18.59548611	11.5413375
2008	112	21.11	11.67	18.51	0	532.8070175	274.778698	48219	19.55488426	11.70688788
2008	113	22.22	10	18.86	0	666.6666667	411.6262912	48370	19.49115741	12.00612865
2008	114	23.89	10.56	20.22	0	768.9403509	418.5780391	48521	19.035625	12.0702458
2008	115	22.22	11.11	19.17	0	629.8245614	517.9121119	48671	20.52775463	12.2995505
2008	116	25	11.11	21.18	2.11	836.3719298	385.107473	48819	19.44006944	12.23152833
2008	117	27.22	10.56	22.64	0.43	1034.203509	390.9359766	48966	19.043125	13.41836817
2008	118	19.44	7.22	16.08	2.13	568.5824561	409.5796891	49112	18.88206019	13.50048467
2008	119	11.11	5	9.43	0	217.0666667	85.31081979	49257	19.90863426	11.37513248
2008	120	13.89	2.78	10.83	0	387.2912281	438.5454083	49401	19.54168981	10.86729995
2008	121	12.22	3.33	9.78	0	304.245614	403.4736298	49543	19.63291667	9.752937033
2008	122	15	3.89	11.94	0	414.0701754	255.4559089	49683	19.35018519	9.2384638
2008	123	23.33	9.44	19.51	0.66	761.6350877	311.6931957	49823	19.55310541	10.52405147
2008	124	19.44	10	16.85	0.82	484.7017544	285.8584744	49960	19.71666667	12.1339625
2008	125	16.67	2.78	12.85	0	516.7719298	382.0603263	50096	19.49372549	11.81545783
2008	126	20.56	5.56	16.43	0	674.7789474	538.9208751	50231	19.33111111	11.38136205
2008	127	22.78	8.33	18.81	0	752.9473684	415.2700376	50363	19.31833333	11.7097435
2008	128	26.11	12.78	22.44	0.21	870.1122807	487.2358043	50495	19.0812037	12.30688567
2008	129	21.11	6.67	17.14	0.99	684.2807018	206.8667803	50624	18.77930556	13.34712938
2008	130	12.22	7.78	11	0	179.5649123	102.9750871	50751	18.41173611	12.22579976
2008	131	18.33	6.67	15.12	0.05	518.9263158	379.7337896	50877	17.73636574	11.66244284
2008	132	16.11	1.11	11.99	2.35	518.3789474	223.7331771	51000	17.41638889	10.80254022
2008	133	10	2.22	7.86	0	242.4	136.4828766	51122	17.15011574	9.519620525
2008	134	22.22	7.22	18.1	0.015	743.0105263	572.9349954	51241	16.98356481	10.27582963
2008	135	21.67	10	18.46	0.115	628.645614	287.054441	51358	16.85627315	11.08212859
2008	136	22.78	8.89	18.96	1.31	738.0280702	412.7727974	51473	16.58680556	12.17108912
2008	137	11.11	5.56	9.58	0.02	201.5017544	64.70651974	51586	16.59611111	11.44878784
2008	138	18.89	6.67	15.53	0.61	550.5192982	215.1584336	51697	18.03689815	10.63123288
2008	139	15.56	4.44	12.5	0.05	428.0421053	236.180566	51805	19.33956019	10.64606126
2008	140	12.78	4.44	10.49	0.98	301.1508772	337.7865995	51910	18.90553241	10.07822076
2008	141	12.78	6.11	10.94	0.47	256.322807	149.1334778	52014	18.38256944	9.430446804
2008	142	15	6.11	12.56	0.12	359.3473684	291.5280845	52114	17.714375	9.436310221
2008	143	13.33	6.67	11.5	0	264.9403509	377.7632999	52212	17.09731481	10.21896287
2008	144	18.89	6.11	15.38	0	564.2736842	489.6255817	52308	16.82159722	10.17391217
2008	145	21.67	6.11	17.39	0	731.9578947	531.1679189	52400	17.43275463	10.89386005
2008	146	23.89	9.44	19.92	0	801.9157895	584.2538664	52490	16.9918287	11.36455562
2008	147	29.44	13.89	25.17	0	1131.242105	490.738714	52577	16.48949074	12.47733855
2008	148	27.22	7.22	21.72	0	1109.866667	329.1403162	52662	16.19180556	14.140318
2008	149	19.44	6.11	15.78	0	596.3157895	585.7225275	52743	15.88865741	13.2459027
2008	150	24.44	8.33	20.01	0	871.8105263	570.7098514	52821	15.72918981	12.40674173
2008	151	26.11	12.22	22.29	0.22	889.5859649	460.5534059	52896	16.93055556	12.74551615
2008	152	27.22	17.78	24.62	0	745.4877193	353.2742745	52969	16.62958333	14.60018417
2008	153	25.56	10	21.28	0	913.1789474	486.9813705	53038	16.29787879	15.01848667
2008	154	25	13.33	21.79	0	757.5298246	542.6026976	53103	15.94909722	14.227775
2008	155	27.78	15	24.26	2.01	930.4982456	379.5238272	53166	15.59252315	14.39901567
2008	156	21.11	17.78	20.19	0.15	232.4	90.25118696	53225	15.99638889	15.3095195
2008	157	28.33	19.44	25.89	0	758.1894737	346.5276454	53281	15.87814815	16.57308333
2008	158	32.78	20.56	29.42	0	1181.515789	525.3359666	53334	15.61810185	18.206381
2008	159	33.33	23.33	30.58	0	1067.480702	518.5259342	53383	15.29793981	18.92441467
2008	160	32.22	22.78	29.62	0	969.2842105	430.1442777	53429	14.97377315	19.4773175
2008	161	33.89	21.67	30.53	1.09	1251.333333	544.354331	53471	15.49548611	19.88906983
2008	162	32.22	15.56	27.64	0.11	1357.122807	410.3008005	53510	16.0550463	19.485167
2008	163	28.33	16.11	24.97	0	934.1684211	575.0606312	53546	15.79185185	18.56332033
2008	164	30.56	17.78	27.04	0.04	1079.873684	544.8341958	53577	15.47643519	18.24805733
2008	165	31.67	19.44	28.31	0.065	1115.017544	436.7838678	53606	15.12585648	18.53325
2008	166	25	15.56	22.4	0.005	661.0736842	181.0906661	53630	14.75706019	18.82461883
2008	167	27.22	16.67	24.32	0.68	803.0315789	546.0667118	53651	14.36923611	18.45423867
2008	168	26.67	13.89	23.15	0.82	875.8596491	354.8558157	53669	14.139375	17.66651343
2008	169	19.44	13.33	17.76	0.14	352.6877193	297.0628983	53682	15.35921296	16.25672327
2008	170	18.89	8.89	16.14	0	487.4385965	228.8638887	53693	16.27638889	15.3308354
2008	171	20	11.11	17.56	0	480.1614035	343.7876073	53699	16.06868106	14.35160097
2008	172	26.11	13.33	22.6	0	849.5789474	472.5745598	53702	15.74668981	15.06330377
2008	173	28.33	15	24.67	1.01	982.3789474	511.7597315	53701	15.43273148	16.07452205
2008	174	26.67	15.56	23.61	0.03	805.2491228	535.5903363	53696	15.26902778	17.06005004
2008	175	25.56	12.78	22.04	0.1	823.9719298	479.7017647	53688	14.84689815	16.96363521
2008	176	25	13.33	21.79	0	757.5298246	423.0075854	53676	14.39298368	16.27542573
2008	177	27.22	15	23.86	0.15	879.6982456	441.0829453	53661	13.95240741	16.29200684
2008	178	28.33	18.33	25.58	1.2	822.3719298	304.6772111	53641	13.61949074	18.34277355
2008	179	26.67	19.44	24.68	0	595.7403509	276.9646091	53619	13.09122685	18.27080027
2008	180	28.89	18.89	26.14	0.04	847.0035088	350.0868961	53592	12.56944444	18.97255817
2008	181	27.22	17.22	24.47	0.14	774.9263158	308.0632236	53562	12.10131944	18.77389167
2008	182	25.56	15.56	22.81	0	708.1122807	417.5938835	53529	11.70388889	18.435032
2008	183	22.78	13.33	20.18	0	584.9122807	300.5112616	53491	11.34972222	17.59915983
2008	184	27.22	15	23.86	0.02	879.6982456	560.9431378	53451	11.04631944	17.18966667
2008	185	25.56	18.33	23.57	0.02	561.3684211	232.1293293	53407	11.001875	17.19759633
2008	186	23.89	17.78	22.21	2.12	450.7157895	200.2341234	53359	10.9887037	17.5713325
2008	187	24.44	16.11	22.15	0	587.5438596	256.7109569	53308	11.65643519	17.748452
2008	188	27.78	17.22	24.88	0.01	827.3754386	371.1902208	53254	12.75803241	18.25809733
2008	189	27.22	18.89	24.93	0	682.4421053	297.4702779	53196	14.01659722	19.04244917
2008	190	30.56	18.89	27.35	0.44	1022.140351	502.6588205	53135	13.95108796	19.66559717
2008	191	26.67	16.11	23.76	0	779.2982456	190.6754666	53071	13.68050926	19.69652967
2008	192	26.67	15	23.46	0	829.9649123	565.8194928	53004	13.15361111	19.18777867
2008	193	28.33	16.67	25.12	0	908.1964912	472.4684987	52933	12.55645833	18.553595
2008	194	31.11	19.44	27.9	0.33	1052.449123	520.5520163	52860	12.10925926	19.39912633
2008	195	27.78	17.22	24.88	0	827.3754386	356.143805	52783	12.16694444	20.28596433
2008	196	26.67	15.56	23.61	0	805.2491228	522.7569306	52703	11.76712963	19.53574683
2008	197	28.33	16.11	24.97	0	934.1684211	561.0040876	52620	11.32377315	18.58602283
2008	198	31.11	17.22	27.29	0	1166.105263	558.1302329	52535	10.87145833	18.85892847
2008	199	31.67	20	28.46	0.12	1083.508772	439.565182	52446	10.63	19.76299733
2008	200	32.22	21.11	29.17	0	1081.25614	413.3408487	52355	10.78437914	20.3687942
2008	201	31.67	20	28.46	0.385	1083.508772	518.2168043	52261	10.78690394	20.67772447
2008	202	32.22	18.89	28.56	0.005	1208.421053	409.8116676	52164	10.37622642	20.33071987
2008	203	29.44	18.33	26.39	0.4	934.6666667	405.5989664	52065	10.17891204	20.47445883
2008	204	28.89	19.44	26.29	1.29	814.6315789	415.2974846	51963	9.943449074	20.400245
2008	205	23.33	15	21.04	1.04	552.8491228	134.212934	51858	9.766736111	19.40701117
2008	206	25	14.44	22.1	0	711.6350877	347.1866596	51751	9.601875	18.276037
2008	207	27.78	15.56	24.42	0	906.5894737	534.6277582	51642	9.481759259	18.20506006
2008	208	28.33	18.33	25.58	0	822.3719298	433.7279548	51530	9.426550926	18.77637125
2008	209	27.22	15.56	24.01	0	855.3824561	487.8411326	51417	10.36106481	19.465443
2008	210	28.89	17.22	25.68	0	935.6210526	492.7906359	51300	10.01918981	18.86356117
2008	211	30	17.78	26.64	0.52	1021.207018	475.510758	51182	9.641365741	19.39652367
2008	212	29.44	18.33	26.39	0	934.6666667	330.9545105	51062	9.401550926	19.3130665
2008	213	28.89	17.78	25.83	0	907.4596491	464.9002607	50939	9.249027778	20.10674583
2008	214	28.33	18.89	25.74	0.01	791.0035088	487.688647	50815	9.13969213	19.791718
2008	215	27.78	16.11	24.57	0	881.4526316	403.336849	50688	9.017949074	19.841906
2008	216	25.56	15	22.65	0	733.6140351	401.2025808	50560	8.929166667	19.05662733
2008	217	27.78	16.67	24.72	0.1	855.0596491	478.5093024	50430	8.940569444	18.76093617
2008	218	24.44	19.44	23.07	0.39	394.4982456	146.3887196	50298	8.951972222	19.1827862
2008	219	28.89	16.67	25.53	0.05	962.4561404	529.496569	50164	8.899444444	19.97472977
2008	220	26.67	14.44	23.31	0.1	853.4947368	347.7898224	50029	8.944814815	18.82840133
2008	221	23.89	12.22	20.68	0	712.2807018	434.3812565	49892	8.896641204	17.95311983
2008	222	24.44	13.89	21.54	0.02	690.2175439	511.5864857	49754	8.779240741	17.40192217
2008	223	25	14.44	22.1	0.04	711.6350877	469.3191211	49614	10.25361806	17.440086
2008	224	21.67	14.44	19.68	0	453.9789474	311.5621837	49472	13.47189815	17.01265883
2008	225	24.44	12.78	21.24	0	734.6105263	408.3263288	49330	13.44405093	17.29702883
2008	226	27.78	13.89	23.96	0.55	974.7929825	428.2015852	49186	13.18534722	17.39620883
2008	227	25.56	15.56	22.81	0	708.1122807	328.4404353	49040	12.75180556	17.70935733
2008	228	25.56	12.78	22.04	0	823.9719298	438.841578	48894	12.2287037	17.56981567
2008	229	25.56	14.44	22.5	0	757.9157895	483.6194572	48746	11.69506944	17.17343333
2008	230	27.22	15	23.86	0	879.6982456	477.3335125	48597	11.16488426	17.34158533
2008	231	29.44	17.22	26.08	0	991.4596491	517.0996517	48446	10.66433566	17.815683
2008	232	26.11	10	21.68	0	957.4807018	372.9667058	48295	10.30712963	18.09006397
2008	233	25.56	11.11	21.58	0	880.4421053	555.6082034	48143	10.07638889	17.01953122
2008	234	29.44	12.78	24.86	0	1168.575439	533.9859896	47990	9.764143519	16.91055603
2008	235	30	16.11	26.18	0	1099.087719	525.4943119	47836	12.43282407	18.07648504
2008	236	27.78	17.78	25.03	0	798.3508772	484.8586566	47681	14.64041667	18.1742005
2008	237	31.11	18.89	27.75	0.13	1082.968421	466.179563	47525	14.52108796	18.49916883
2008	238	27.78	12.78	23.65	0	1014.603509	522.3459326	47368	17.42881944	18.91014473
2008	239	26.11	13.33	22.6	0.003895833	849.5789474	518.3940869	47210	19.20282407	17.56332097
2008	240	26.67	13.89	23.15	0.634125	875.8596491	427.9775242	47052	18.58600939	17.061494
2008	241	17.78	15.56	17.17	0.228345833	133.9719298	84.21656113	46893	18.03893519	16.63892083
2008	242	21.11	16.67	19.89	0	298.2175439	150.0692954	46734	17.51189815	17.00096433
2008	243	27.22	12.22	23.1	0	984.1192982	300.8565008	46573	17.03006944	17.98709917
2008	244	27.22	13.33	23.4	0	945.6491228	532.7390568	46413	16.5775	17.38625133
2008	245	26.67	12.78	22.85	0	917.2561404	535.9735578	46251	16.12201389	17.1286
2008	246	29.44	14.44	25.32	0	1110.919298	524.0686409	46089	15.71710648	17.089326
2008	247	30.56	15.56	26.43	0	1179.347368	503.3268471	45927	15.33368056	17.656088
2008	248	31.67	16.11	27.39	0	1274.596491	477.185271	45764	15.13652778	18.103045
2008	249	31.11	20.56	28.21	0.05584375	986.9403509	447.4168759	45600	15.06030093	18.71906867
2008	250	22.78	12.78	20.03	0.001297917	607.6070175	102.0358747	45437	14.80555556	18.9557967
2008	251	25	13.89	21.94	0.002595833	735.1508772	416.4520726	45272	14.544375	18.22116998
2008	252	26.67	13.89	23.15	0.62999375	875.8596491	473.3476649	45108	14.32148148	17.60944118
2008	253	20	9.44	17.1	0.0122	537.7473684	102.804586	44943	15.10217593	17.39391928
2008	254	21.11	10.56	18.21	0.00726875	572.877193	480.7886565	44778	19.18043981	16.2708472
2008	255	20.56	13.33	18.57	0.68049375	426.7087719	300.2052869	44613	19.2518287	15.89626573
2008	256	21.11	18.33	20.35	0.05988125	197.4105263	83.20920045	44447	18.61717593	17.0476706
2008	257	24.44	19.44	23.07	0.0077875	394.4982456	198.8963787	44281	18.83861111	18.2820114
2008	258	29.44	18.89	26.54	0	904.1824561	370.2134873	44115	18.95275463	19.38527015
2008	259	22.78	11.67	19.72	0	649.7964912	295.0599972	43949	18.47358796	19.11867531
2008	260	20	9.44	17.1	0.002595833	537.7473684	223.4926939	43783	18.37240741	17.02985466
2008	261	23.33	10	19.67	0	745.277193	469.5825199	43617	18.40402778	16.09003235
2008	262	21.11	7.78	17.44	0	656.7087719	437.7620225	43450	18.1356713	16.11321985
2008	263	20.56	8.33	17.19	0	606.2245614	414.7878265	43284	17.85190141	15.26621954
2008	264	21.11	10	18.06	0.003895833	591.4526316	404.6942588	43117	17.62050926	15.05129053
2008	265	24.44	10	20.47	0.002595833	827.4035088	402.8139217	42951	17.58645833	15.15936392
2008	266	19.44	7.78	16.24	0	553.522807	187.9311689	42784	17.46497685	15.29815823
2008	267	21.11	8.89	17.75	0	625.8315789	405.3855136	42618	17.25585648	14.7416825
2008	268	23.33	9.44	19.51	0	761.6350877	455.0213861	42452	17.04844907	14.50056167
2008	269	20.56	11.11	17.96	0.00519375	516.3438596	360.7270273	42286	16.87071759	14.60048933
2008	270	17.78	12.22	16.25	0.307825	297.5859649	83.8833069	42120	16.72212963	14.80417783
2008	271	21.11	16.67	19.89	0.688397917	298.2175439	144.4449688	41954	16.58243056	16.073031
2008	272	22.22	13.89	19.93	0.0077875	519.9087719	213.4117286	41788	16.4387037	17.13759367
2008	273	20.56	10	17.65	0	555.0736842	266.7199904	41623	16.21476852	16.52811583
2008	274	18.33	10	16.04	0.233795833	417.4245614	187.1357907	41458	15.94902778	14.893194
2008	275	15.56	8.33	13.57	0	320.5614035	171.0871606	41293	15.75372685	14.16487033
2008	276	12.78	8.33	11.56	0	185.5578947	237.869349	41129	15.59761574	13.09481017
2008	277	15	5	12.25	0.103904167	388.154386	161.5802603	40964	15.50935185	12.3758245
2008	278	14.44	6.11	12.15	0	332.6807018	227.7690046	40801	15.4193287	11.565312
2008	279	16.67	7.78	14.22	0.002595833	396.3438596	409.8755258	40637	15.30935185	12.1173195
2008	280	16.67	2.22	12.69	0.0181875	526.7087719	369.2673942	40474	15.22349537	12.0149635
2008	281	16.67	2.78	12.85	0.01688125	516.7719298	425.0154466	40312	17.97881944	10.81735503
2008	282	16.67	7.22	14.07	0.035064583	412.7508772	214.8585305	40150	18.93865741	11.14282967
2008	283	21.67	8.89	18.15	0	662.4070175	382.3904138	39989	18.51108796	13.40339767
2008	284	21.11	6.11	16.99	0	696.8982456	415.3811874	39828	18.23423611	12.97412733
2008	285	21.11	5.56	16.83	0	708.7719298	409.4670611	39667	18.21909722	12.35403333
2008	286	22.78	7.78	18.65	0	767.0315789	399.9288383	39508	18.63810185	12.53982267
2008	287	25	8.89	20.57	0	899.6140351	301.9554763	39349	18.43277778	12.8040885
2008	288	26.11	8.89	21.37	0	985.8385965	333.7745882	39191	18.28956019	13.275849
2008	289	23.33	12.78	20.43	0	649.0245614	308.6739246	39033	18.17354167	14.78190567
2008	290	20	8.89	16.94	0	555.0877193	94.636456	38876	18.0399537	14.821793
2008	291	12.22	2.78	9.62	0	316.6035088	151.1481276	38720	17.93513889	12.36477083
2008	292	10.56	-1.11	7.35	0	324.5192982	283.9609299	38565	17.89488426	10.43657772
2008	293	11.67	-1.11	8.15	0.003895833	365.1789474	403.3675637	38411	17.85974537	9.469537217
2008	294	16.11	-0.56	11.53	0.002595833	541.9649123	359.6668363	38258	17.82601852	8.800280967
2008	295	10.56	2.78	8.42	0	250.8	212.8433255	38106	17.86835648	9.1798608
2008	296	9.44	0.56	7	0	256.554386	275.5778386	37955	17.87226852	8.957874717
2008	297	12.22	0.56	9.01	0	359.8245614	382.1138927	37804	17.73604167	8.341854633
2008	298	13.89	6.67	11.9	1.540483333	290.6175439	164.1759153	37655	17.60569444	8.4012301
2008	299	14.44	3.33	11.39	0.005191667	400.4912281	42.23829123	37507	17.51074074	9.943415233
2008	300	16.67	3.89	13.15	0	494.9824561	357.0392427	37361	18.8080787	9.468852383
2008	301	8.89	3.89	7.51	0.007791667	161.8526316	246.5397651	37215	19.10699074	9.5886378
2008	302	6.67	1.11	5.14	0.18833125	153.4105263	96.75550509	37071	19.27819444	8.43952235
2008	303	4.44	-0.56	3.07	0.001297917	122.6666667	101.336033	36928	19.15881944	6.80652015
2008	304	8.89	-0.56	6.29	0	257.7403509	360.7489356	36787	18.70300926	6.5825919
2008	305	18.33	3.33	14.21	0	592.1684211	343.689129	36647	18.41990741	7.014874533
2008	306	17.78	4.44	14.11	0	540.7368421	226.0983891	36509	18.15546296	8.818536567
2008	307	9.44	3.89	7.92	0	182.1403509	182.8972478	36372	18.04884259	8.753033867
2008	308	14.44	7.22	12.46	0	300.322807	252.2671945	36237	17.94719907	9.01019265
2008	309	13.89	8.89	12.51	0.01	218.3298246	97.98676905	36103	17.85472222	9.598966183
2008	310	18.33	8.89	15.74	0	454.7368421	250.9945303	35971	17.80456019	10.56963005
2008	311	20	10	17.25	0	519.4947368	236.6316998	35841	17.69710648	11.336407
2008	312	21.67	9.44	18.31	0.24	645.9719298	301.1877291	35713	18.10886574	11.88558017
2008	313	12.78	4.44	10.49	0	301.1508772	131.1438748	35586	19.09206019	11.11031983
2008	314	8.33	1.67	6.5	0	195.6070175	143.0145273	35462	19.45458333	9.271604183
2008	315	3.89	0.56	2.97	0	84.36491228	151.8338211	35339	19.13805556	7.858047233
2008	316	4.44	0	3.22	0	111.4736842	120.4836832	35219	18.81162037	7.0329933
2008	317	10	0.56	7.4	1.51	276.2175439	222.5361126	35100	18.9150463	7.22607755
2008	318	8.89	5.56	7.97	0	115.0035088	37.77112357	34984	19.45231481	7.51509305
2008	319	11.67	8.33	10.75	0.59	135.8245614	92.4736837	34870	18.77895833	8.6705713
2008	320	13.33	2.22	10.28	0.05	374.4701754	40.82170816	34759	18.46365741	9.609258383
2008	321	5	0.56	3.78	0.04	115.4596491	111.8055111	34649	18.3119213	7.790283567
2008	322	2.78	-3.89	0.94	0	137.4175439	116.2623199	34542	18.1224537	6.477928067
2008	323	-0.56	-6.67	-2.24	0	103.4105263	210.0334994	34438	17.82692308	4.656617983
2008	324	0	-5.56	-1.53	0	99.83157895	216.9663822	34336	17.68930556	3.4786987
2008	325	3.89	-2.78	2.06	0.15	147.677193	123.5883907	34237	17.54428241	3.930760717
2008	326	-1.11	-6.67	-2.64	0	92.70175439	137.535223	34140	17.52076389	3.564380583
2008	327	-1.67	-6.11	-2.89	0	74.85614035	174.444652	34046	19.06270833	2.831294317
2008	328	2.78	-6.67	0.18	0.68	173.9508772	282.062079	33954	19.81159722	2.469676515
2008	329	2.22	-5.56	0.08	0.94	147.7754386	79.33098123	33866	19.87386574	2.120269915
2008	330	3.89	0	2.82	0.05	96.26666667	158.3364775	33780	18.91166667	2.53703195
2008	331	1.67	0	1.21	0	39.15789474	88.458317	33697	18.54303241	2.69115255
2008	332	5.56	-2.22	3.42	0	183.4526316	256.2201644	33618	18.48134259	2.828267817
2008	333	5.56	-1.11	3.72	0	164.3087719	223.3970636	33541	18.58275463	2.762012017
2008	334	5.56	-3.33	3.11	0.73	200.645614	260.8408249	33467	19.15726852	3.035957943
2008	335	3.89	0	2.82	0.41	96.26666667	25.18374362	33397	19.40865741	2.794495375
2008	336	6.11	0	4.43	0	159.4596491	117.006977	33329	20.05810185	3.531155212
2008	337	2.22	-5	0.24	0	140.3578947	117.989831	33265	19.41002315	3.581130722
2008	338	6.67	-4.44	3.61	0	246.7719298	264.2165522	33204	18.80268519	2.91681817
2008	339	7.78	-3.89	4.57	0	272.2807018	28.32571656	33146	18.31886574	3.566464285
2008	340	-1.67	-8.33	-3.5	0	102.2736842	137.4809713	33092	17.86405093	2.224762967
2008	341	-1.67	-8.33	-3.5	0.03	102.2736842	130.3452359	33041	19.53173611	1.418810183
2008	342	-3.89	-9.44	-5.42	0	76.76491228	140.8100654	32993	19.80324074	1.02373055
2008	343	-1.11	-8.89	-3.25	0	118.2526316	76.44418207	32949	19.01006944	0.762486335
2008	344	11.67	-2.22	7.85	1.47	380.6105263	172.055713	32909	19.84865741	1.387687502
2008	345	12.22	-1.11	8.56	1.365	386.2526316	29.53321679	32872	19.57462963	2.945005083
2008	346	1.67	-1.11	0.9	1.145	62.37894737	19.61856783	32838	19.1975463	3.033106483
2008	347	1.67	-6.11	-0.47	0	142.4561404	74.75693068	32808	18.81074074	2.724113417
2008	348	-0.56	-6.11	-2.08	0	96.21052632	235.0495057	32782	18.54055556	2.154702083
2008	349	9.44	-1.67	6.39	0.265	294.477193	244.1054018	32759	18.19576389	2.4239456
2008	350	13.89	-1.67	9.61	0.315	459.7824561	68.72272796	32740	18.01606481	3.438138867
2008	351	1.11	-2.22	0.19	1.07	70.59649123	66.2190412	32724	17.94571759	3.259205333
2008	352	3.33	-0.56	2.26	0	92.91929825	39.65273242	32712	17.775	2.7973959
2008	353	2.22	-0.56	1.46	3.18	64.64561404	86.35985416	32704	17.86118056	2.976317583
2008	354	5.56	-4.44	2.81	0.02	216	15.00298927	32699	17.77655093	2.420737733
2008	355	-2.78	-5.56	-3.54	0.12	46.58245614	133.6793022	32698	19.4737963	2.046831483
2008	356	1.67	-15.56	-3.07	0	214.0280702	177.1035327	32701	19.32555556	1.6545169
2008	357	-7.78	-14.44	-9.61	0	66.78596491	253.8003181	32707	18.62361111	0.853892362
2008	358	1.11	-11.11	-2.25	3.335	179.6561404	145.1445891	32717	18.2550463	0.241004086
2008	359	9.44	-0.56	6.69	0.315	276.5824561	43.53020553	32731	18.12337963	0.245230586
2008	360	0	-5.56	-1.53	0	99.83157895	168.6035586	32749	18.04618391	0.259533345
2008	361	2.78	-4.44	0.79	0.36	145.5578947	178.0809631	32770	17.96203704	0.621395968
2008	362	9.44	0	6.85	0.01	266.8421053	124.0944315	32794	17.84388889	0.773267809
2008	363	12.22	0	8.86	0	369.1719298	138.48357	32822	17.7256713	1.001080324
2008	364	6.67	-1.11	4.53	0	196.8912281	251.1410299	32854	17.58384259	1.083118947
2008	365	3.89	-1.11	2.51	0.08	118.4	254.6308971	32889	17.39532407	0.956272686
2009	1	1.67	-9.44	-1.39	0	264.1864349	150.6526947	32928	17.27194444	0.590941398
2009	2	-1.67	-9.44	-3.81	0	252.0662643	269.4522146	32971	17.25523148	0.592997263
2009	3	5.56	-5.56	2.5	0	338.4527851	150.1274801	33017	17.23997685	0.396095402
2009	4	1.11	-7.78	-1.33	0	169.1340428	243.4170203	33066	17.20217593	0.361824697
2009	5	3.89	-7.22	0.83	0.01	266.6382496	127.1572377	33119	17.19386946	0.634411214
2009	6	3.89	-3.33	1.9	0.44	227.4430348	181.5890139	33175	17.26564815	0.523533892
2009	7	0	-3.33	-0.92	1.83	50.3711006	34.44418232	33234	17.84655093	0.558141683
2009	8	2.22	-3.33	0.69	0	165.2672999	34.7837423	33296	17.81865741	0.429593151
2009	9	-2.22	-5.56	-3.14	0	139.4944835	138.8898083	33362	17.44351852	0.311407104
2009	10	-2.78	-5.56	-3.54	0.955	49.44759858	205.4042347	33431	17.20020833	0.249778536
2009	11	-0.56	-5.56	-1.93	0.095	108.3172789	51.12690658	33503	17.04953704	0.201448939
2009	12	-3.33	-6.11	-4.1	0	119.1433274	120.7245372	33579	17.02726852	0.218612373
2009	13	-0.56	-6.67	-2.24	0	110.799546	181.9669319	33657	17.04810185	0.207900998
2009	14	0.56	-12.78	-3.11	0.085	98.79150683	90.40176129	33738	17.02680556	-0.039953369
2009	15	-7.78	-13.33	-9.31	0.165	98.60923509	186.0258372	33822	17.02108796	-0.130095666
2009	16	-8.89	-17.22	-11.18	0	94.76454865	190.6558026	33909	17.25430556	-0.438000144
2009	17	-13.33	-18.89	-14.86	0	68.80729022	265.623155	33999	17.48833333	-0.446218965
2009	18	-6.67	-19.44	-10.18	0.23	44.73166455	207.8809764	34092	17.5855787	-0.322418055
2009	19	-3.33	-7.78	-4.56	0.04	102.9768209	112.1954009	34187	17.45460648	-0.362478682
2009	20	-4.44	-12.22	-6.58	0	118.3555004	193.4296134	34285	17.23601852	-0.298334826
2009	21	-3.89	-12.78	-6.33	0	155.8506765	149.4716925	34386	17.21782407	-0.297580555
2009	22	-4.44	-12.78	-6.74	0	150.5775132	247.505967	34489	20.54363426	-0.19275281
2009	23	4.44	-5.56	1.69	0	233.9671771	296.132334	34595	19.37335648	-0.086051338
2009	24	10.56	-2.78	6.89	0.00445	438.592215	278.7741401	34703	19.37490741	-0.248217213
2009	25	-1.11	-12.78	-4.32	0.018333333	108.7026327	186.4513482	34814	19.73967593	-0.695011805
2009	26	-7.22	-12.78	-8.75	0.000683333	107.2715216	129.7626303	34926	19.75230769	-0.6714299
2009	27	-2.78	-10.56	-4.92	0.009583333	153.6160651	247.4111899	35042	19.08796296	-0.67522184
2009	28	-2.78	-6.67	-3.85	1.365966667	67.40931715	133.6630835	35159	18.79018519	-0.625323248
2009	29	1.67	-8.33	-1.08	0.008666667	211.3752309	55.45588988	35278	18.61678241	-0.569163705
2009	30	-0.56	-8.33	-2.69	0.087966667	154.5088648	268.7595242	35400	18.44349537	-0.577287268
2009	31	0	-11.11	-3.06	0.001216667	203.5899768	191.3583337	35523	18.23020833	-0.617125428
2009	32	-1.11	-11.67	-4.01	0	164.3049002	316.7733611	35649	18.12678241	-0.436206182
2009	33	9.44	-1.11	6.54	0.060466667	152.2796808	324.0618824	35776	18.85361111	-0.342651662
2009	34	3.89	-4.44	1.6	0.004133333	147.6905964	68.36564027	35905	18.79981481	-0.41716836
2009	35	1.67	-8.89	-1.24	0.09065	176.1774139	247.6217396	36036	18.36636574	-0.545501852
2009	36	-3.89	-16.11	-7.25	0.001	147.1429927	212.5411933	36169	18.34583333	-0.781788905
2009	37	-7.22	-15.56	-9.51	0	139.7014676	353.5443949	36303	18.16900463	-0.739787707
2009	38	3.33	-8.33	0.12	0	237.8874798	352.2842311	36440	17.94699074	-0.418762959
2009	39	12.78	-2.78	8.5	0.000316667	419.5200398	212.7825015	36577	17.7944213	-0.468114993
2009	40	10.56	-2.22	7.04	0	386.0580639	211.9374944	36716	17.93893519	-0.192399073
2009	41	7.22	-2.22	4.62	0.157616667	200.2813618	333.6065986	36857	18.543125	0.283540747
2009	42	10	2.78	8.01	0.013283333	279.2561642	83.24552068	36999	19.25224537	1.42649607
2009	43	16.67	5	13.46	0.499733333	600.4362025	254.9982878	37143	18.88108796	1.732218424
2009	44	6.11	1.11	4.74	0.0026	318.3311801	85.08424249	37287	18.56893519	1.35426397
2009	45	2.22	-0.56	1.46	0.107133333	167.2721316	70.72821955	37433	18.20310185	1.254566053
2009	46	0.56	-5	-0.97	0.005033333	227.6195056	120.4752815	37581	17.97233796	1.176902235
2009	47	2.22	-5.56	0.08	1.67E-05	272.1943102	343.8433482	37729	17.88564815	0.900053468
2009	48	0.56	-7.78	-1.74	0	236.7528368	223.5229944	37879	18.03337963	0.624521288
2009	49	3.33	-7.78	0.28	0.480608333	161.2265878	377.6727786	38029	18.12668981	0.562335183
2009	50	4.44	-1.67	2.76	0.280633333	194.6061353	37.60048207	38181	18.56297101	0.575147688
2009	51	2.22	-8.89	-0.83	0.008408333	251.1921475	187.1719744	38334	19.85006944	0.139543287
2009	52	-3.89	-8.89	-5.26	0	223.1231013	221.1620395	38487	19.10155093	0.038640739
2009	53	3.33	-7.22	0.43	0.093208333	260.7307378	383.9254418	38642	18.85425926	0.111804161
2009	54	0	-6.67	-1.83	0.049475	229.8927661	199.1495624	38798	18.66587963	-0.106102778
2009	55	-3.89	-11.11	-5.87	0	188.3726894	205.5782232	38954	18.44766204	-0.360381787
2009	56	-0.56	-11.11	-3.46	0	249.314548	421.1664353	39111	18.3099537	-0.169163195
2009	57	8.33	-7.22	4.06	0.015366667	428.006074	406.770529	39269	18.24597222	0.456634912
2009	58	12.78	2.78	10.03	0.744733333	279.7922266	194.3551551	39428	18.35972222	1.073350702
2009	59	12.78	-3.89	8.19	0.000133333	487.0341169	84.56445073	39587	19.39462963	1.242243283
2009	60	1.67	-4.44	-0.01	0	345.0601914	348.3981159	39747	19.10097222	1.129675917
2009	61	3.89	-8.33	0.53	3.33E-05	354.7241505	284.2062852	39907	18.90166667	0.513456023
2009	62	-5.56	-13.89	-7.85	0	201.4583111	334.6517158	40068	18.66025463	0.091859722
2009	63	-2.22	-13.89	-5.43	0	249.8397379	446.919859	40230	18.40655093	-0.134418055
2009	64	2.78	-11.11	-1.04	0	353.4684994	452.9963811	40392	18.2743287	0.222493982
2009	65	11.67	-7.22	6.47	0	543.6752737	432.266115	40555	18.16604167	1.591128935
2009	66	20	8.33	16.79	0.004733333	744.2677937	291.7351255	40718	18.03201389	3.661941667
2009	67	21.67	12.78	19.22	0.840566667	457.0879083	171.3707152	40882	17.93689815	5.0602231
2009	68	15	6.11	12.56	0.508116667	356.2603444	43.92445969	41046	18.49789352	4.68408935
2009	69	10	1.67	7.71	0.06885	242.4558126	116.4657152	41210	19.48712963	3.922303933
2009	70	7.22	2.22	5.85	0.024183333	404.9297895	76.87998531	41375	19.46275463	4.823018283
2009	71	17.22	-2.78	11.72	3.33E-05	795.2153365	384.6016413	41540	19.581875	3.57351065
2009	72	2.78	-5	0.64	0	319.2155879	312.9228426	41705	19.51020833	3.26449745
2009	73	6.67	-5	3.46	0	326.2932209	460.3722294	41870	19.10328704	3.602295367
2009	74	11.11	-1.11	7.75	0	333.8742675	384.3102189	42036	19.34111111	4.896749533
2009	75	13.89	2.22	10.68	0.651216667	274.9745386	386.8515963	42202	19.54708333	5.125130783
2009	76	11.67	3.33	9.38	0.127316667	267.5401823	123.3271304	42368	20.35725352	5.551244217
2009	77	12.78	2.78	10.03	0	448.9978894	252.8423497	42534	19.69356481	6.145179867
2009	78	22.78	3.89	17.58	0.003683333	1053.709672	428.9825923	42701	19.2112963	6.74820995
2009	79	12.78	-2.22	8.65	0.004033333	629.3741589	317.3741316	42867	19.42585648	4.972917817
2009	80	6.67	-6.11	3.15	0	449.3988361	333.8011181	43033	19.38946759	3.879189617
2009	81	8.33	-6.11	4.36	0	434.1245019	401.7900755	43200	19.03717593	4.06765255
2009	82	12.22	-3.33	7.94	0	772.7372812	351.0774831	43366	19.4862963	4.113649067
2009	83	7.78	-6.67	3.81	0	602.8603107	523.0685365	43533	19.30828704	3.667400933
2009	84	8.89	-6.11	4.76	0.000116667	618.5631465	507.2450633	43699	19.146875	3.5882405
2009	85	10	2.22	7.86	1.215633333	109.8442733	255.8330669	43865	19.05321759	4.112110883
2009	86	5.56	1.67	4.49	0.001033333	272.2866165	45.07351009	44032	18.99793981	5.278441433
2009	87	14.44	2.78	11.24	0.335508333	168.8633258	396.4063951	44198	18.91173611	6.180595833
2009	88	12.22	7.22	10.85	0.7059	227.6366565	89.0151795	44363	18.83780093	6.663504167
2009	89	10.56	1.11	7.96	0.068941667	343.3438813	143.7828683	44529	18.80939815	5.470238667
2009	90	3.89	0	2.82	0	353.6276041	158.0540569	44695	18.6087037	6.037169217
2009	91	16.11	0.56	11.83	0.710925	256.8713881	502.9419515	44860	18.63428241	6.149077083
2009	92	8.89	6.11	8.13	0.019375	314.3319836	104.8584976	45025	19.59997685	7.900946067
2009	93	18.89	6.67	15.53	1.815816667	278.580352	457.593281	45190	19.56048611	8.7522632
2009	94	15.56	3.33	12.19	0.02295	640.2511348	78.67532901	45354	20.26229167	7.71594885
2009	95	8.89	2.22	7.06	0	645.7900798	371.3043241	45518	20.09381944	7.8282294
2009	96	18.89	2.78	14.46	0.451816667	490.0568742	521.1084581	45681	20.29611111	8.074059017
2009	97	12.22	-1.11	8.56	0.01775	442.7006644	174.9759377	45845	20.2675	6.091749533
2009	98	3.89	-0.56	2.67	0.001783333	422.2031368	241.4963597	46007	19.65877315	5.906940733
2009	99	10	-0.56	7.1	0	604.6907822	348.7893511	46169	19.58675926	6.201961117
2009	100	15	1.11	11.18	0.184116667	399.0540823	538.7410795	46331	19.35462963	6.25099075
2009	101	9.44	3.89	7.92	0.205133333	503.8963151	101.8480554	46492	19.07412037	7.347819683
2009	102	12.78	-1.11	8.96	0	778.1438675	441.5756736	46653	18.86652778	6.66879815
2009	103	10	-2.78	6.49	0.000966667	547.4747602	568.4990148	46813	18.74612676	6.1267449
2009	104	12.78	-1.11	8.96	1.050633333	119.0061886	366.4778618	46972	19.68738426	6.233354633
2009	105	7.78	5	7.01	1.37	116.3689887	46.07230177	47131	19.96405093	6.429903483
2009	106	7.78	-0.56	5.49	0.000516667	416.5154791	126.7511223	47289	19.99949074	7.183044217
2009	107	18.33	1.11	13.6	0	1103.46758	561.1434915	47446	20.26895833	8.100519667
2009	108	21.11	4.44	16.53	0	1361.317267	567.0471792	47602	19.53581019	9.216704633
2009	109	23.33	10.56	19.82	0.003033333	1347.874024	539.2342848	47758	19.16990741	10.05577963
2009	110	20	5	15.88	0.924775	348.6805386	297.3184209	47912	18.91395833	8.6613176
2009	111	7.78	4.44	6.86	0.536141667	175.0739881	73.59244002	48066	18.66826389	8.794954867
2009	112	17.22	5	13.86	0.023133333	482.297071	305.4858264	48219	18.40493056	7.9391236
2009	113	11.11	2.22	8.67	0.143816667	464.8843314	329.441523	48370	18.14460648	7.84872205
2009	114	12.78	3.33	10.18	0.030466667	606.7031419	392.6842856	48521	18.00324074	8.74412315
2009	115	23.89	5	18.69	0	1212.598359	433.3682963	48671	17.99625	11.06692868
2009	116	30	13.89	25.57	0	2066.634528	430.641466	48819	17.85212963	12.872462
2009	117	31.11	15	26.68	0	2221.143246	544.3947983	48966	18.06766204	14.164437
2009	118	32.22	16.67	27.94	0	1939.849546	539.6834351	49112	18.37784722	14.655188
2009	119	29.44	6.67	23.18	0.0001	1225.275917	492.0502664	49257	20.02300926	13.543775
2009	120	19.44	7.22	16.08	0.090716667	512.5185758	401.8403843	49401	19.1305787	12.18818
2009	121	17.22	11.11	15.54	0.344066667	329.7594936	118.4156307	49543	18.6393287	12.70728017
2009	122	21.67	11.11	18.76	0.6231	726.5510594	232.6589023	49683	18.2387963	12.89560767
2009	123	17.78	8.33	15.18	0.264616667	280.056739	325.4303797	49823	18.04675926	11.576427
2009	124	14.44	8.33	12.76	1.5003	146.8725817	177.196617	49960	18.91342593	11.287524
2009	125	11.11	9.44	10.65	0.673058333	196.1258044	78.36871166	50096	19.77273148	11.0739125
2009	126	13.33	9.44	12.26	0.68195	211.5938044	127.757532	50231	19.73789352	11.61468183
2009	127	18.89	11.11	16.75	0.897275	522.6763283	230.3950505	50363	19.47087963	12.423324
2009	128	21.11	11.11	18.36	0.219233333	366.700773	325.3226135	50495	18.89097222	12.34042883
2009	129	22.22	12.78	19.62	0.023866667	757.6694342	263.4105263	50624	18.80157407	13.245162
2009	130	24.44	8.89	20.17	0.001066667	1085.621956	307.4391261	50751	20.179375	12.41621333
2009	131	15.56	6.11	12.96	0.02545	368.7424103	261.5906421	50877	19.28155093	11.11687122
2009	132	15.56	3.89	12.35	0.008583333	620.5911312	217.8204545	51000	19.11516204	10.92327265
2009	133	16.67	4.44	13.31	0	702.4807696	483.3466298	51122	20.11158508	11.17875647
2009	134	21.67	7.22	17.69	1.647083333	282.4456908	479.1733969	51241	19.50541667	12.0907205
2009	135	20	11.11	17.56	0.424166667	606.2392927	242.6808207	51358	18.90775463	13.3921065
2009	136	24.44	11.11	20.78	1.875883333	472.1160068	503.7646018	51473	18.39076389	14.291933
2009	137	26.11	7.78	21.07	0.455283333	1279.800578	327.7802789	51586	17.99337963	13.42447633
2009	138	15	3.89	11.94	0	799.4811004	500.0363329	51697	18.49372685	11.64920378
2009	139	15.56	2.78	12.04	0	674.835982	604.6745768	51805	20.05916667	11.26339255
2009	140	22.22	5.56	17.64	0	1029.752062	598.7405426	51910	19.31715278	12.1660175
2009	141	28.33	11.11	23.6	0	1433.767087	586.0939057	52014	20.50731481	13.10204817
2009	142	29.44	13.89	25.17	0.00005	1243.95323	598.4818879	52114	20.13863426	13.89305683
2009	143	28.89	15.56	25.22	0.097833333	798.0652995	448.2053787	52212	19.35918981	14.75360467
2009	144	27.78	15.56	24.42	0.219808333	616.3887921	352.7039417	52308	18.72594907	15.196075
2009	145	29.44	16.11	25.78	0.215925	1196.570604	386.0758797	52400	18.16530093	15.70710833
2009	146	26.11	12.22	22.29	0.580183333	513.7200429	532.4953865	52490	17.6374537	13.98719683
2009	147	12.78	9.44	11.86	0.1383	127.795897	92.63594589	52577	17.24509259	13.088926
2009	148	16.67	10.56	14.99	0.526358333	156.1560378	163.225932	52662	16.85821759	14.1169635
2009	149	22.78	16.67	21.1	1.356208333	345.4430767	231.558633	52743	16.54166667	14.96284217
2009	150	20	12.78	18.01	8.33E-05	761.5117931	185.0829562	52821	16.64148148	14.57022583
2009	151	21.67	10	18.46	0	917.7313413	544.793757	52896	17.13018519	13.83123
2009	152	21.11	5	16.68	0.002316667	748.3944377	547.0655773	52969	17.60893519	13.007849
2009	153	22.78	8.33	18.81	0.405066667	391.0654887	478.3555358	53038	18.4750463	14.18153983
2009	154	23.89	15.56	21.6	1.566466667	162.8550763	323.8721128	53103	18.79928241	14.19061167
2009	155	16.67	11.11	15.14	0.04065	320.1857322	54.71466092	53166	18.53134259	13.7514935
2009	156	17.78	11.11	15.94	0.610183333	142.9780977	218.4544278	53225	18.0287037	13.4810795
2009	157	14.44	12.22	13.83	0.05565	457.0342452	73.90805813	53281	17.47997685	14.44826383
2009	158	24.44	12.78	21.24	0	781.4197036	556.738567	53334	16.93967593	14.92855367
2009	159	27.22	15.56	24.01	1.172641667	665.3370689	531.9865083	53383	16.41277778	15.89600883
2009	160	27.78	18.33	25.18	0.816958333	607.6812536	391.5378819	53429	15.98738426	16.85053367
2009	161	28.33	16.67	25.12	0.053866667	534.0691892	371.9081099	53471	15.59840278	16.66832267
2009	162	25	17.78	23.01	0.770391667	246.4732931	323.3027148	53510	15.87229167	16.451369
2009	163	22.22	17.78	21	0.602158333	384.3381698	157.6200347	53546	17.1275463	16.75228583
2009	164	23.89	16.11	21.75	0	696.7668218	265.8292799	53577	16.52174312	16.6149545
2009	165	25	11.11	21.18	0.000166667	901.0650168	363.8511084	53606	17.5148615	16.06725033
2009	166	25	12.78	21.64	0	948.8202684	560.9749174	53630	17.06939708	15.84487767
2009	167	26.67	15	23.46	0	568.0934847	548.3730461	53651	14.60818627	15.6101455
2009	168	22.22	15.56	20.39	1.91045	280.2558962	187.5253541	53669	14.5694213	15.20846217
2009	169	16.67	13.89	15.9	0.416083333	268.2314446	134.5283157	53682	15.85270833	15.40802
2009	170	21.67	15.56	19.99	0	551.8582417	213.1896655	53693	15.49740741	15.9651195
2009	171	24.44	16.11	22.15	3.7643	322.3490787	341.7005307	53699	15.19713262	16.43381717
2009	172	24.44	16.67	22.31	0.360316667	646.0100973	146.5989893	53702	15.014884	16.46886633
2009	173	23.89	15.56	21.6	1.67E-05	828.393316	274.4749179	53701	14.90136615	16.77141617
2009	174	27.22	15.56	24.01	0	1047.297317	397.7736896	53696	15.33415415	16.93585567
2009	175	27.22	14.44	23.71	0.0001	1122.611537	555.3949217	53688	16.33923356	17.11683667
2009	176	29.44	16.11	25.78	0	996.8158224	574.6233361	53676	16.29655252	17.48824283
2009	177	30.56	18.89	27.35	0.1578	778.0274218	506.7819002	53661	16.58233652	18.13777007
2009	178	26.67	15.56	23.61	0	921.1815165	403.2965624	53641	16.3896817	17.94212855
2009	179	26.67	15.56	23.61	0.036816667	359.5379371	491.9753388	53619	16.08562215	17.1483993
2009	180	21.11	13.89	19.12	0.392533333	571.5133907	116.3080572	53592	16.00524778	17.21030395
2009	181	26.11	15.56	23.21	1.373766667	317.4763943	487.3282553	53562	16.5169443	17.1784577
2009	182	22.78	13.89	20.33	0.00705	384.479247	310.0663311	53529	17.16688778	16.95295642
2009	183	24.44	15	21.85	1.606516667	292.929466	337.9620599	53491	17.77604647	17.06240763
2009	184	22.22	15.56	20.39	0.00525	508.6422429	242.4461812	53451	17.42702889	16.98831817
2009	185	22.22	15	20.24	0	843.0129499	313.621839	53407	17.10614059	17.03938227
2009	186	23.33	11.11	19.97	0	777.5442578	470.28139	53359	16.63590674	16.51611964
2009	187	23.89	12.22	20.68	0	853.5576772	547.7317331	53308	16.25680319	16.29999873
2009	188	27.22	13.89	23.56	0	1176.476636	524.0370648	53254	15.90473222	16.54125389
2009	189	26.11	11.67	22.14	0	808.670287	512.6473472	53196	15.57917985	16.05570914
2009	190	22.78	12.78	20.03	0	719.4379253	404.6790367	53135	15.2874563	16.11414468
2009	191	26.11	13.89	22.75	0	704.8211986	451.1855275	53071	15.11791084	16.37592263
2009	192	26.11	16.67	23.51	1.671016667	447.6598914	412.7288201	53004	14.967596	16.95263985
2009	193	25.56	17.22	23.26	0.033116667	901.6685182	260.0073478	52933	14.81874541	17.46677048
2009	194	25	14.44	22.1	0.000566667	1029.287788	548.276665	52860	14.8714792	16.76409421
2009	195	24.44	11.11	20.78	0.017533333	973.6450359	549.1763925	52783	15.83382139	15.99129279
2009	196	25	11.11	21.18	0.000616667	832.3341124	585.6383208	52703	15.60456541	15.95154951
2009	197	27.78	13.33	23.81	0.390866667	986.6266601	538.5253776	52620	15.31783941	17.65805117
2009	198	30	18.33	26.79	0.475958333	450.5324709	469.6063114	52535	15.04607632	17.11260424
2009	199	22.78	13.89	20.33	0.791058333	540.2532892	156.8308665	52446	14.77298037	16.79556086
2009	200	20.56	13.33	18.57	0.0065	532.8747459	291.040689	52355	14.56437252	16.46485735
2009	201	23.89	14.44	21.29	0	675.0930108	439.727396	52261	14.50887956	16.49872351
2009	202	26.11	15.56	23.21	0.097	693.6484257	381.2205025	52164	14.40295748	17.23818584
2009	203	25	15.56	22.4	0.500133333	372.1661505	389.6387718	52065	14.42458356	17.30206311
2009	204	25	16.67	22.71	2.318016667	320.5875517	253.8567258	51963	14.37196519	18.10391324
2009	205	25.56	17.22	23.26	0.1648	532.685326	273.1148441	51858	13.94136253	18.24939646
2009	206	26.11	15	23.06	0.383116667	481.6771529	418.2766959	51751	13.60141414	17.86443013
2009	207	27.78	16.67	24.72	0.291816667	476.1631711	384.4746053	51642	13.56224385	18.26046599
2009	208	26.11	18.33	23.97	0	732.9878967	324.6862079	51530	13.29477348	18.38234737
2009	209	27.78	17.22	24.88	0	788.7211924	458.1828599	51417	13.0987567	18.44488622
2009	210	28.89	18.33	25.99	1.169833333	256.614042	470.3617673	51300	13.03852952	18.33304527
2009	211	22.78	18.33	21.56	0.069583333	508.5388685	163.4420267	51182	13.97430052	18.92111223
2009	212	27.78	19.44	25.49	1.46685	246.626154	365.0571277	51062	14.17857379	19.01213427
2009	213	22.22	16.67	20.69	0.0032	528.009103	122.4593426	50939	14.10112619	19.1675374
2009	214	27.22	17.22	24.47	0.120166667	503.28073	506.0976567	50815	13.96808594	19.11019377
2009	215	25.56	14.44	22.5	0	667.5599216	271.869793	50688	13.78771852	18.58394387
2009	216	25.56	15.56	22.81	0	624.4665166	506.7422892	50560	13.59544444	18.43062433
2009	217	28.33	16.67	25.12	0	756.4169314	493.856954	50430	13.36551511	18.73414943
2009	218	26.11	12.78	22.44	0	846.0942866	320.4459003	50298	13.12528674	17.7620063
2009	219	25	12.22	21.49	0	668.5008427	427.5716361	50164	12.898232	17.02655827
2009	220	24.44	13.89	21.54	0.027166667	634.6702583	421.0024085	50029	12.75296037	17.3456921
2009	221	26.11	16.11	23.36	0.42765	442.6475989	405.2680068	49892	12.68882459	18.521139
2009	222	29.44	20	26.85	0.216141667	806.3058002	244.7442619	49754	12.58617689	19.79586393
2009	223	32.22	20	28.86	0.231791667	614.5217081	432.1195998	49614	12.42636096	19.80562637
2009	224	27.78	18.33	25.18	1.749625	449.6914643	273.1248273	49472	12.28982733	19.39451487
2009	225	26.67	16.67	23.92	0.089208333	530.6079843	276.7336663	49330	12.43195785	19.1043639
2009	226	26.67	17.78	24.22	0	626.9497425	465.3738724	49186	12.59146919	19.2003656
2009	227	28.89	17.78	25.83	0	794.0750932	470.1539798	49040	12.6902143	19.6118005
2009	228	30.56	19.44	27.5	0	901.5865104	515.5344359	48894	12.72646081	19.70703327
2009	229	31.11	20	28.06	0	1105.731535	510.0141699	48746	12.68992874	20.00755901
2009	230	32.78	20.56	29.42	0.431825	611.56991	518.3952332	48597	12.60035948	20.2415764
2009	231	30.56	20.56	27.81	0.015741667	676.9374703	351.5058548	48446	12.53342526	20.98747883
2009	232	29.44	20	26.85	0	749.152435	333.530617	48295	12.38147163	20.52965485
2009	233	29.44	20.56	27	0.485283333	492.655685	359.0568575	48143	11.7354321	20.68413435
2009	234	26.67	18.89	24.53	0.001233333	559.8637232	285.3915241	47990	11.52798611	20.33386644
2009	235	26.67	17.78	24.22	0	846.3101499	299.3133255	47836	11.23553241	19.90870181
2009	236	25.56	14.44	22.5	0	576.5525923	430.2514747	47681	11.18344907	18.71164586
2009	237	25.56	14.44	22.5	0	667.7699726	381.753095	47525	11.27793981	18.49436192
2009	238	27.22	16.11	24.17	0	897.3468059	505.3594652	47368	10.96268519	18.65333005
2009	239	28.89	17.22	25.68	0.02615	534.4074612	459.5440124	47210	12.36418981	18.88681579
2009	240	19.44	16.67	18.68	0.91275	219.3969411	127.6851593	47052	18.48865741	18.41659058
2009	241	20	16.67	19.08	2.108033333	330.555097	72.24358433	46893	19.29851852	18.69921189
2009	242	26.11	14.44	22.9	0	761.1388359	318.1928552	46734	18.56717593	17.70273605
2009	243	22.22	11.11	19.17	0	540.8998917	476.7458314	46573	17.95337963	16.35215266
2009	244	18.89	7.78	15.83	3.33E-05	474.5543285	395.1246976	46413	17.41759259	15.19571253
2009	245	20.56	8.33	17.19	0	529.277754	534.5373117	46251	17.09925926	14.86966747
2009	246	23.33	10	19.67	0	586.9153305	517.0376034	46089	18.25259259	14.9963573
2009	247	23.89	10.56	20.22	0	627.404906	508.5383093	45927	18.11219907	15.44803263
2009	248	25	12.22	21.49	0	667.4029684	503.8815948	45764	17.78003584	15.8886812
2009	249	25.56	12.78	22.04	0	723.5662468	470.3184485	45600	16.35648838	15.99601293
2009	250	25	13.89	21.94	0.009341667	385.7817956	450.5682714	45437	16.52584585	16.37611647
2009	251	20	17.22	19.24	0.003408333	409.4359562	149.1449587	45272	16.444047	16.6643653
2009	252	22.22	16.11	20.54	0.000916667	474.4212481	207.0595401	45108	17.22588652	16.72595863
2009	253	22.78	15	20.64	0.013333333	708.5729684	234.7029532	44943	19.1305787	16.38360603
2009	254	20	12.78	18.01	2.071841667	218.3804631	436.384339	44778	18.40560185	15.04931047
2009	255	15	12.22	14.24	0.056508333	192.5441047	61.60441644	44613	17.95699074	15.2955757
2009	256	19.44	13.89	17.92	0	587.8569736	105.8736647	44447	17.65643519	16.03736277
2009	257	24.44	15	21.85	0	598.2023368	472.8762279	44281	17.38884259	16.50685607
2009	258	23.89	13.89	21.14	0.00035	456.242422	324.9239434	44115	18.57914352	16.27195733
2009	259	24.44	11.67	20.93	0	743.9274831	294.1310319	43949	19.78340278	15.8984923
2009	260	19.44	11.67	17.31	0.010241667	315.1932069	383.2147007	43783	19.53784722	15.31886033
2009	261	16.11	13.89	15.5	0.014991667	481.6589997	78.80695935	43617	19.15099537	15.6359254
2009	262	23.33	10	19.67	0	668.9773209	426.0333466	43450	18.53108796	14.8548639
2009	263	20	5.56	16.03	0	394.0091204	505.3660332	43284	18.25564815	14.08279767
2009	264	23.33	6.11	18.6	0	470.319669	414.226545	43117	18.08664352	14.91440467
2009	265	23.89	14.44	21.29	0.077166667	413.0755619	419.8038414	42951	17.96486111	15.960007
2009	266	23.33	18.33	21.96	0.454383333	323.0048201	144.8125339	42784	18.31277778	17.07598717
2009	267	26.11	17.78	23.82	0	550.8505766	284.1539911	42618	20.84796296	17.53127967
2009	268	22.78	13.33	20.18	0	766.0699265	207.0453677	42452	19.06833333	16.59682817
2009	269	20	12.22	17.86	2.91225	393.1857879	417.29497	42286	18.58162037	14.78196333
2009	270	14.44	11.67	13.68	1.75345	97.59836475	65.58896219	42120	18.32053241	14.42063983
2009	271	16.67	12.22	15.44	0.7834	392.4936873	142.1283847	41954	19.74185185	13.91818233
2009	272	20	11.11	17.56	0.0036	614.0463142	254.3226977	41788	19.0512037	13.34449133
2009	273	13.89	10.56	12.97	0.002233333	474.1497003	78.8267941	41623	18.68511574	13.06155933
2009	274	13.33	6.67	11.5	0	425.1628331	223.5629047	41458	18.51466667	11.99129267
2009	275	12.78	3.89	10.33	0.634591667	132.6601074	240.0519693	41293	18.44921375	11.18761613
2009	276	15	5	12.25	0.372508333	279.36355	212.3568622	41129	18.23968035	12.5127135
2009	277	18.89	7.78	15.83	0	395.4028318	358.6382646	40964	18.08023198	12.11972083
2009	278	15.56	7.78	13.42	0	431.4231722	213.0864027	40801	17.92725568	11.86395983
2009	279	15.56	4.44	12.5	0	370.5361453	294.6788924	40637	17.62647059	11.29502767
2009	280	17.78	5	14.26	0.267583333	564.702324	369.0740499	40474	17.574375	12.1496414
2009	281	13.33	7.78	11.81	0	466.8655743	212.9468737	40312	17.47736111	11.98804853
2009	282	18.33	8.33	15.58	1.115225	171.0742548	340.6097565	40150	17.42243056	12.58137183
2009	283	17.78	11.67	16.1	0.475775	390.5188521	96.72508364	39989	17.4174537	12.90519267
2009	284	14.44	5	11.85	0	373.7990604	205.6982832	39828	17.39787037	10.98520655
2009	285	12.78	3.89	10.33	0	340.3996733	330.8247118	39667	17.37222222	9.909569983
2009	286	9.44	3.89	7.92	0.005983333	283.6007623	132.4726536	39508	17.29446759	10.10350045
2009	287	13.33	0	9.67	3.33E-05	252.7312396	152.4389823	39349	17.24400463	8.940656483
2009	288	7.22	0.56	5.39	2.513708333	65.32204503	141.1073365	39191	17.26152778	7.809564817
2009	289	3.89	-0.56	2.67	1.276416667	39.74306619	40.85958802	39033	17.23037037	6.53886945
2009	290	1.67	0	1.21	0.679866667	44.46893486	103.1451737	38876	17.19358796	6.80197175
2009	291	3.89	0	2.82	0.185891667	193.5736985	85.2601823	38720	17.14981481	7.369737967
2009	292	10	-1.11	6.94	0	279.1027575	251.9846695	38565	17.03115741	7.149981483
2009	293	12.78	0	9.26	0	396.3782907	394.2742834	38411	17.68537037	8.152777783
2009	294	19.44	6.67	15.93	3.33E-05	513.2498888	335.160002	38258	18.979375	9.0647486
2009	295	21.11	7.78	17.44	0	743.1655047	274.2292089	38106	18.65337963	9.892166667
2009	296	21.67	8.33	18	0.837983333	421.5513789	308.289364	37955	18.37402778	10.68388063
2009	297	17.22	11.11	15.54	7.42895	347.2655167	114.6863419	37804	18.17643519	11.86467267
2009	298	18.33	6.67	15.12	0	724.291248	133.3951446	37655	18.84574074	11.15617417
2009	299	15	2.78	11.64	0	419.3229011	358.2337939	37507	18.83532407	10.02796438
2009	300	15.56	3.33	12.19	0.064833333	201.9614038	336.0513679	37361	18.6924537	9.9535611
2009	301	13.33	7.78	11.81	1.282408333	131.5099396	133.638852	37215	19.26664352	10.89745883
2009	302	15	11.11	13.93	4.17E-05	246.9586021	81.37094358	37071	18.68701389	11.37666567
2009	303	13.33	10	12.42	0.013566667	246.492101	77.26967627	36928	18.38564815	11.32808183
2009	304	14.44	11.11	13.53	0.110216667	391.4013184	57.56560724	36787	18.26694444	11.50586767
2009	305	16.67	5.56	13.61	0	645.7503674	57.25960275	36647	18.10916667	10.54589233
2009	306	11.67	-0.56	8.31	3.33E-05	308.9746219	293.2534386	36509	18.24967593	9.026255917
2009	307	12.78	0	9.26	0.032983333	442.227101	333.8727663	36372	19.60634259	8.666372033
2009	308	12.22	-1.11	8.56	0.001616667	384.6979668	270.6512907	36237	18.91046154	7.779666617
2009	309	7.78	-1.11	5.33	0.077083333	213.3716827	190.0896348	36103	18.52806496	7.355397917
2009	310	7.22	0.56	5.39	0	391.6988879	111.2114723	35971	18.25438123	6.804435883
2009	311	7.78	-2.22	5.03	0	335.0895566	328.0700968	35841	18.12261031	6.170619217
2009	312	13.33	-2.22	9.06	0	394.3304765	299.1857985	35713	18.00990617	7.446088667
2009	313	21.11	5.56	16.83	0	457.0171514	307.906837	35586	18.23918682	8.1939956
2009	314	19.44	5.56	15.62	0	543.8915295	185.2016349	35462	18.78353016	8.974313883
2009	315	14.44	5.56	12	0.015083333	742.7692553	135.5576848	35339	18.47525333	8.74380695
2009	316	10.56	2.22	8.26	0	635.896958	168.7929835	35219	18.18427306	8.0766905
2009	317	10	2.78	8.01	6.67E-05	609.4263692	181.9636602	35100	18.2037455	8.592113667
2009	318	15.56	5	12.65	0.003733333	362.9603322	264.6466298	34984	19.10973048	9.749885183
2009	319	14.44	4.44	11.69	1.67E-05	298.1035457	130.1027202	34870	19.3392693	9.837582867
2009	320	19.44	5.56	15.62	0	734.7430277	269.5545645	34759	19.11913479	9.799887967
2009	321	12.78	5.56	10.79	0	794.3924701	281.8303316	34649	18.83534884	9.10501165
2009	322	8.89	2.78	7.21	0	365.799792	98.3438309	34542	18.7244213	8.145310883
2009	323	10	4.44	8.47	1.212533333	110.5722992	169.0844497	34438	18.56756944	8.815306467
2009	324	11.11	6.11	9.74	0.043433333	439.1936874	53.44398694	34336	18.44965278	8.90845925
2009	325	10	5	8.62	0	315.3315028	186.1455943	34237	18.33715278	8.56904445
2009	326	10.56	5	9.03	0	191.8939447	113.3332518	34140	18.23800926	7.691278233
2009	327	8.33	3.89	7.11	0.046891667	215.7106532	78.42744029	34046	18.29530093	7.662626617
2009	328	9.44	4.44	8.07	0.679641667	79.92162581	90.26957246	33954	18.22583333	8.287681933
2009	329	9.44	6.67	8.68	0.029666667	100.914755	74.2816555	33866	18.58208333	8.597900933
2009	330	10.56	2.22	8.26	0.4603	98.29357923	90.10446192	33780	21.10527778	8.127690283
2009	331	10	2.22	7.86	0.246758333	323.7376413	136.5117631	33697	19.635	7.186889117
2009	332	5.56	1.67	4.49	0.036091667	219.0044832	98.1294979	33618	19.12439815	6.3154757
2009	333	5	0	3.62	0	273.8465278	94.95260568	33541	18.83835648	6.061325467
2009	334	16.11	0.56	11.83	0.126091667	443.3355542	246.8243286	33467	18.42965278	7.146477767
2009	335	11.11	-0.56	7.9	0.000958333	346.3394737	61.65722151	33397	18.22256944	5.903040033
2009	336	6.11	-2.22	3.82	0.656725	74.259888	116.1394963	33329	18.18377315	5.09524305
2009	337	12.78	-1.67	8.81	0.898241667	269.6985342	66.72260387	33265	18.09951389	6.534470833
2009	338	11.67	2.78	9.22	0.00245	404.3970804	56.59307535	33204	17.95071759	6.068719917
2009	339	5	-1.11	3.32	0.464875	103.075495	136.9367484	33146	17.77988426	4.86336525
2009	340	0.56	-3.89	-0.67	0.001691667	169.5391919	38.01909487	33092	17.65893519	4.09177895
2009	341	0.56	-5.56	-1.12	0.002908333	114.5965167	275.9888308	33041	17.56967593	3.546908383
2009	342	1.11	-5.56	-0.72	0.000591667	191.6584817	86.46409788	32993	17.53259259	3.82000145
2009	343	3.33	-1.11	2.11	3.267383333	93.08141013	212.1396893	32949	17.51291667	3.383344317
2009	344	6.11	-3.33	3.51	0.002883333	362.2057389	150.4345783	32909	17.47898148	2.942909783
2009	345	-2.22	-10	-4.36	1.67E-05	241.5653984	161.9424735	32872	17.39560185	2.353698067
2009	346	-2.78	-9.44	-4.61	0	243.8525446	198.4004374	32838	17.26314815	1.979540217
2009	347	2.22	-5.56	0.08	1.664683333	137.7923547	267.534931	32808	17.21085648	2.006717217
2009	348	5	-0.56	3.47	0.000416667	126.5436996	49.6435715	32782	17.18203704	2.538182533
2009	349	7.78	2.78	6.4	0.1445	169.7839001	127.4152446	32759	17.10814815	2.910699933
2009	350	7.78	-3.89	4.57	0.01185	351.5186021	51.31638845	32740	17.21326389	2.349318667
2009	351	-1.11	-7.22	-2.79	0.001183333	194.6349855	227.2286645	32724	17.89180556	1.7363368
2009	352	-1.67	-6.67	-3.04	0	190.6060358	205.9292406	32712	19.64652778	1.400756217
2009	353	0	-6.67	-1.83	0.758841667	69.38089985	173.0736137	32704	19.21856481	1.064801183
2009	354	-4.44	-7.22	-5.21	0.020958333	141.3702265	60.2211859	32699	18.70148148	1.144172367
2009	355	0	-6.11	-1.68	0.001766667	163.3830332	243.0552532	32698	18.44428241	1.121802233
2009	356	0.56	-3.33	-0.51	0.00515	181.8306143	194.4983457	32701	18.38333333	1.189809383
2009	357	1.11	-9.44	-1.79	0	198.3102232	111.339103	32707	18.07969907	0.652684333
2009	358	-1.67	-9.44	-3.81	0	130.5850733	268.58776	32717	18.11840278	0.470407783
2009	359	0	-5.56	-1.53	0.436566667	66.77951248	263.8557556	32731	18.37752315	0.812317743
2009	360	6.11	-1.67	3.97	2.204083333	54.83178188	41.77262853	32749	20.5956713	1.470252667
2009	361	6.67	-2.78	4.07	0.003083333	160.2968077	49.2841795	32770	19.05451389	2.01228632
2009	362	5	-2.78	2.86	0.011341667	256.0515326	190.914608	32794	18.64877315	1.5599052
2009	363	-2.22	-7.78	-3.75	0.049575	202.1849359	127.8532119	32822	18.51039352	0.803181533
2009	364	-4.44	-9.44	-5.82	0	146.7228171	221.1451254	32854	18.30613426	0.490637362
2009	365	-1.67	-9.44	-3.81	0.426108333	66.96507975	170.0031135	32889	17.94365741	0.527598248
2010	1	0	-3.89	-1.07	0.021008333	111.5198336	82.66519752	32928	17.63814815	0.92637268
2010	2	2.78	-7.78	-0.12	0.079366667	216.0043044	107.2698539	32971	17.39511574	0.594004628
2010	3	-6.67	-11.11	-7.89	0.004641667	118.5879497	173.8761548	33017	17.23393519	0.289720833
2010	4	-6.11	-10.56	-7.33	0.005375	120.014054	80.59008743	33066	17.176875	0.18940162
2010	5	-3.89	-7.78	-4.96	0.004258333	132.4565973	104.4706894	33119	17.24416667	0.155303472
2010	6	-2.78	-7.78	-4.15	0.024658333	121.4258647	84.38534313	33175	17.49673611	0.176428935
2010	7	-1.11	-3.89	-1.87	0.000208333	165.2800878	64.84941777	33234	17.57875	0.16021875
2010	8	-1.67	-6.11	-2.89	0.136158333	125.2094245	82.61614114	33296	17.6731713	0.059362269
2010	9	-4.44	-8.89	-5.67	0.005166667	176.6695034	203.9075481	33362	17.76770833	-0.088073148
2010	10	-2.78	-13.33	-5.68	0	146.0890171	284.5410735	33431	17.8362037	-0.21884375
2010	11	-4.44	-13.33	-6.89	0.016116667	127.458138	254.5900388	33503	17.87384259	-0.246042823
2010	12	-2.22	-9.44	-4.21	0.00085	147.7534395	152.319196	33579	17.8880787	-0.301344443
2010	13	-2.22	-6.67	-3.44	0	169.3752225	200.9392386	33657	17.9199537	-0.251347917
2010	14	0	-7.78	-2.14	0	186.0429463	171.5997803	33738	17.95884259	-0.289144677
2010	15	7.22	-7.22	3.25	0	245.8080478	280.3118047	33822	17.95446759	-0.038535185
2010	16	5.56	2.22	4.64	0	241.7271257	58.36715341	33909	17.93854167	0.17089074
2010	17	9.44	-1.67	6.39	1.630925	67.46757635	166.2907256	33999	17.93203704	0.242331018
2010	18	3.89	-1.11	2.51	0.043708333	129.5067224	25.77650499	34092	17.97886574	0.818392362
2010	19	6.11	2.22	5.04	0.014733333	179.3813113	198.2960217	34187	18.09092593	1.225505317
2010	20	4.44	-2.22	2.61	0	253.3243194	44.23061474	34285	18.53259259	1.257709493
2010	21	1.67	-7.22	-0.78	0	178.2963888	160.1600803	34386	19.12125	0.968598835
2010	22	3.33	-6.67	0.58	0.065466667	242.7984897	286.9718535	34489	19.20576389	1.256721302
2010	23	2.78	-4.44	0.79	0	267.359495	101.2159956	34595	19.28657407	1.18495602
2010	24	5	-5	2.25	1.057183333	142.2054918	290.7908094	34703	19.09030093	1.45863658
2010	25	13.33	1.67	10.12	4.141916667	284.4608514	66.74789603	34814	19.36097222	3.596964583
2010	26	11.67	-1.67	8	0.027716667	387.2378933	76.01507475	34926	19.35469907	2.875362967
2010	27	0.56	-3.89	-0.67	0.003583333	234.7107231	172.3038757	35042	19.15340278	1.93263495
2010	28	0.56	-3.89	-0.67	0.068183333	202.1964405	223.8889259	35159	18.76902778	1.267060183
2010	29	1.67	-13.33	-2.46	0	232.2756603	188.9768403	35278	18.65865741	0.498521067
2010	30	-7.22	-13.33	-8.9	0	153.0169118	269.7792365	35400	19.38634259	0.007672917
2010	31	-8.33	-13.89	-9.86	0	155.742414	138.8464736	35523	19.58983796	-0.363520138
2010	32	-2.22	-13.33	-5.28	0	191.5766279	330.6247746	35649	19.70104167	-0.440102547
2010	33	-1.11	-7.78	-2.94	0.048866667	149.8203472	251.9987413	35776	19.62733796	-0.294845138
2010	34	1.67	-6.67	-0.62	0.1417	138.2543235	166.4134689	35905	19.56041667	-0.106673618
2010	35	1.11	-4.44	-0.42	0	282.8756916	110.8318211	36036	19.52023148	-0.175012268
2010	36	3.33	-4.44	1.19	0.297025	169.1546818	328.6841212	36169	19.07831019	-0.127424768
2010	37	1.11	-5.56	-0.72	1.478475	179.3266347	67.06939228	36303	18.71261574	-0.240351852
2010	38	-2.22	-15.56	-5.89	1.67E-05	140.014984	200.9275569	36440	18.54738426	-0.277269675
2010	39	-2.22	-14.44	-5.58	1.67E-05	135.2405321	361.3588447	36577	18.3924537	-0.224977547
2010	40	-1.67	-10.56	-4.11	0.08035	77.78833028	392.7156912	36716	18.30844907	-0.084850695
2010	41	-2.22	-8.89	-4.06	0.891358333	61.59693208	129.1288678	36857	18.81854167	-0.081497685
2010	42	-2.78	-9.44	-4.61	0.002291667	139.1377205	102.0480663	36999	20.52381944	-0.037870371
2010	43	-1.11	-5.56	-2.33	3.33E-05	209.4065999	224.5354128	37143	19.84407407	0.019525
2010	44	1.11	-7.78	-1.33	0.000233333	211.6857332	332.9341428	37287	19.21851852	0.025363194
2010	45	-3.33	-7.78	-4.56	0.014183333	137.1988201	188.6017841	37433	18.86967593	0.06123426
2010	46	-1.11	-9.44	-3.4	0.297308333	119.729269	123.7906933	37581	18.68145833	0.04281713
2010	47	0.56	-9.44	-2.19	0.084291667	165.7281876	217.4286048	37729	18.50766204	0.057592129
2010	48	-1.11	-6.67	-2.64	0.011191667	161.4629869	243.4850998	37879	18.37400463	0.150322685
2010	49	0.56	-5	-0.97	0.007591667	215.9663021	189.0636532	38029	18.29918981	0.302247916
2010	50	2.78	0	2.01	0.000183333	320.3520665	265.1597975	38181	18.24071759	0.355609722
2010	51	4.44	-3.89	2.15	0	334.1611361	295.8187908	38334	18.24398148	0.19868125
2010	52	5	-3.89	2.56	0	409.1621616	227.7542389	38487	18.46530093	0.253071296
2010	53	7.22	-3.33	4.32	0.125525	253.520992	399.4286209	38642	18.52229167	0.242777314
2010	54	4.44	-2.22	2.61	0.041291667	75.61425035	135.2253731	38798	18.53849537	0.372121296
2010	55	3.33	-0.56	2.26	0	263.6064599	102.6758713	38954	19.79819444	0.512010416
2010	56	2.78	-2.22	1.4	0.043733333	207.1322165	205.0391946	39111	19.04247685	0.37173588
2010	57	0.56	-6.67	-1.43	0.315566667	120.0686571	218.8743814	39269	19.45166667	0.236916203
2010	58	-2.22	-5.56	-3.14	0.068416667	119.7091058	129.9696205	39428	19.56069444	0.348967823
2010	59	1.67	-3.89	0.14	0.043183333	187.3356345	267.5089618	39587	18.98543981	0.483394675
2010	60	4.44	-1.11	2.92	0.008058333	233.5345711	246.9078036	39747	18.72173611	0.608025927
2010	61	3.89	0	2.82	0.000425	243.5892452	162.5108938	39907	18.61337963	0.591316898
2010	62	3.33	-0.56	2.26	0.048066667	207.0671659	179.1218071	40068	18.54756944	0.722790047
2010	63	4.44	-2.78	2.46	0	394.4714723	113.6496993	40230	18.48858796	0.793963193
2010	64	5	-2.78	2.86	0	426.5389723	432.4084963	40392	18.40752315	1.002290745
2010	65	7.22	-5	3.86	0	483.723969	412.8393211	40555	18.29284722	1.166994902
2010	66	9.44	-4.44	5.62	0	602.7230652	460.1384039	40718	18.26680556	1.905190038
2010	67	10.56	-1.11	7.35	0	646.133554	453.0627841	40882	18.27405093	2.701254867
2010	68	11.67	-0.56	8.31	0	594.5900011	454.4507847	41046	18.22527778	3.317930083
2010	69	15.56	1.11	11.58	0.000808333	679.1629471	447.744362	41210	18.16208333	4.066266433
2010	70	15.56	2.22	11.89	0.002408333	541.3981871	257.4452191	41375	17.99604167	5.692212967
2010	71	18.89	3.89	14.76	0.818983333	178.3883097	415.2692595	41540	17.93046296	6.418776167
2010	72	10	5	8.62	2.895616667	123.9284277	63.20544943	41705	17.88539352	5.990235883
2010	73	8.33	5	7.42	0.880633333	103.5372274	54.36912657	41870	17.81597222	5.646140983
2010	74	6.67	4.44	6.06	0.045566667	196.7819722	64.73049642	42036	17.72518519	5.535346283
2010	75	6.67	4.44	6.06	1.67E-05	528.4148953	77.08003092	42202	17.69340278	6.312006717
2010	76	15.56	-0.56	11.13	0	786.6147442	470.7616598	42368	17.71759259	6.221790283
2010	77	17.78	0	12.89	0	884.5385146	486.484406	42534	18.07793981	6.329203717
2010	78	18.89	1.67	14.15	0	912.8883794	464.5833892	42701	18.0755787	6.91437825
2010	79	20	6.11	16.18	0	1037.163672	461.9379974	42867	18.05627315	7.655270133
2010	80	21.11	6.67	17.14	0	1167.51575	429.2277301	43033	18.06520833	8.846329867
2010	81	22.78	7.78	18.65	0.3143	561.2853258	411.9808536	43200	18.02159722	9.5929088
2010	82	18.33	7.78	15.43	0.246025	335.6198265	123.0717728	43366	17.96168981	8.540825
2010	83	8.33	2.78	6.81	0.000108333	570.5693522	48.14205727	43533	17.92784722	7.780382633
2010	84	15.56	2.78	12.04	0.200816667	517.5675446	498.4490459	43699	17.85710648	7.632457867
2010	85	18.33	-1.11	12.99	1.101366667	733.2761299	228.9977033	43865	18.62784722	7.175300467
2010	86	5	-5.56	2.1	0	443.5347271	462.8712381	44032	20.12578704	5.66445625
2010	87	8.89	-5.56	4.92	2.144625	172.9833566	465.5259243	44198	19.67699074	5.1613338
2010	88	7.22	2.78	6	0.182625	186.4774684	149.0453066	44363	19.07787037	6.515086117
2010	89	14.44	1.67	10.93	0.001841667	690.6611826	223.3117621	44529	18.83280093	6.37096065
2010	90	10	1.67	7.71	0.000325	707.0691914	263.9120873	44695	18.72157407	7.4080456
2010	91	20	5	15.88	0	1108.768058	506.830194	44860	18.63668981	8.61501945
2010	92	26.67	6.67	21.17	0	1343.450028	502.915979	45025	18.52268519	10.08159885
2010	93	28.33	10	23.29	0	1371.97667	458.3881195	45190	20.1424537	11.12394168
2010	94	25.56	12.22	21.89	0	1784.308152	432.247925	45354	19.56013889	11.26383283
2010	95	21.11	7.22	17.29	0.001283333	1113.620212	462.2918299	45518	19.27162037	11.094076
2010	96	26.67	8.33	21.63	0.1036	1268.346143	403.5987843	45681	19.07076389	12.56240683
2010	97	30	15.56	26.03	0	2277.840818	443.1739924	45845	18.83875	13.071631
2010	98	29.44	12.22	24.71	0.188058333	1355.85076	376.9783321	46007	19.20976852	12.91867083
2010	99	28.89	4.44	22.17	0.03315	1122.008326	369.8694012	46169	19.10175926	10.634214
2010	100	7.22	3.89	6.31	0.008375	562.5312808	178.2846085	46331	18.73648148	9.70663025
2010	101	16.67	5.56	13.61	0	923.1641868	544.3496154	46492	19.26384259	10.01521435
2010	102	21.11	2.78	16.07	0	1318.838169	434.9736464	46653	20.10465278	10.36474623
2010	103	18.89	4.44	14.92	0.001133333	845.7859205	514.9091363	46813	19.22641204	9.720175783
2010	104	13.33	0	9.67	0	506.9135009	220.3179205	46972	18.91284722	9.382454883
2010	105	18.33	2.78	14.06	0	837.0168582	523.6467372	47131	18.78731481	10.10790603
2010	106	25.56	7.78	20.67	0.412966667	874.0810633	458.8442844	47289	18.49925926	11.46911333
2010	107	25.56	6.11	20.21	0.19925	825.0047669	316.2917284	47446	18.25969907	10.04997733
2010	108	7.22	1.67	5.69	0.023616667	312.1296568	169.6734624	47602	18.87462963	8.635825383
2010	109	9.44	1.67	7.31	0	517.9129054	199.2497071	47758	19.07613426	9.116297917
2010	110	17.22	2.22	13.1	0	745.8473127	555.4732566	47912	18.78770833	9.659733783
2010	111	18.33	5	14.67	0.06255	608.2405161	480.1600557	48066	18.47777778	10.02811573
2010	112	20	4.44	15.72	0.056466667	751.3825465	394.4674175	48219	18.28506944	10.1299379
2010	113	20	3.33	15.42	0	1116.214058	383.7891745	48370	20.35159722	10.42650595
2010	114	19.44	3.89	15.17	0.070741667	757.695633	562.0118021	48521	19.51157407	9.822957
2010	115	16.67	6.11	13.76	1.24475	125.4044897	259.0170696	48671	18.96631944	9.73835595
2010	116	11.67	7.78	10.6	1.029241667	100.9510084	106.9769518	48819	18.50749409	9.851438883
2010	117	12.22	5.56	10.39	0.198733333	599.0647484	107.5301124	48966	18.06391204	9.65232455
2010	118	11.11	1.67	8.51	0	629.9726654	453.9905777	49112	17.70143519	8.843117583
2010	119	12.78	2.78	10.03	0	801.9290074	397.8577862	49257	17.42013889	9.58786875
2010	120	19.44	6.67	15.93	0	905.2578058	545.3739232	49401	17.02215278	11.13152448
2010	121	27.78	10	22.89	0	1358.744456	520.1739986	49543	16.61849537	12.79629167
2010	122	30.56	15.56	26.43	0.23245	594.7040993	449.8123322	49683	16.37888889	13.8604185
2010	123	23.89	17.78	22.21	1.59415	641.6816102	146.2321774	49823	16.16099537	14.67517317
2010	124	25	12.78	21.64	0.37015	871.2859522	269.9608841	49960	15.83689815	13.82927083
2010	125	22.22	8.89	18.56	0	858.2302341	441.6826347	50096	15.53736111	13.44962917
2010	126	26.67	11.11	22.39	0.27015	1221.65997	568.6103819	50231	15.2906713	13.72862267
2010	127	21.11	6.11	16.99	0	743.1969638	559.468842	50363	15.07800926	12.830563
2010	128	20.56	8.33	17.19	0.721991667	641.877035	445.9918991	50495	14.78076389	12.707844
2010	129	16.11	2.78	12.44	0.037625	632.339722	343.4752545	50624	14.42030093	10.5355912
2010	130	8.33	2.22	6.65	0	538.1930523	221.741334	50751	17.98298611	9.9008708
2010	131	15	1.67	11.33	1.692641667	284.1894484	601.2329297	50877	19.30321759	8.792662983
2010	132	9.44	3.33	7.76	1.605108333	95.03821326	84.59183237	51000	18.42726852	9.183681483
2010	133	16.11	6.67	13.51	0.000833333	325.1761622	124.2296321	51122	17.81988426	9.86635185
2010	134	14.44	7.78	12.61	0.162083333	322.4562471	204.0337051	51241	17.53300926	11.44850783
2010	135	27.22	11.11	22.79	0.132266667	1337.088583	332.2158742	51358	17.33777778	12.31841717
2010	136	21.11	10.56	18.21	0.002566667	900.2163436	517.1955882	51473	16.97946759	12.3638995
2010	137	19.44	8.89	16.54	0.335833333	439.1544302	546.0369826	51586	16.66574074	11.7624615
2010	138	15.56	8.33	13.57	0.513241667	179.6434306	138.9434843	51697	16.20206019	11.04528517
2010	139	11.67	8.33	10.75	0.000191667	250.5843739	92.30745721	51805	15.63583333	11.14847183
2010	140	17.78	10	15.64	0	659.6935837	253.3847582	51910	15.1400463	12.4991945
2010	141	27.22	13.33	23.4	0	1003.374627	550.8778135	52014	14.69664352	13.42532817
2010	142	27.78	15.56	24.42	0.303733333	781.8861175	411.1042724	52114	14.19541667	13.93557183
2010	143	22.22	15	20.24	1.86885	266.716222	299.8566157	52212	13.84988426	14.43563183
2010	144	22.22	13.89	19.93	0.00325	399.917488	255.7183511	52308	13.61821759	14.68767917
2010	145	23.33	15	21.04	0.00005	644.1077855	287.0674029	52400	13.160625	15.460898
2010	146	26.67	16.11	23.76	0	895.8815694	439.8289265	52490	12.67747685	16.12501333
2010	147	30	17.78	26.64	3.33E-05	1313.359499	548.6134083	52577	12.19743056	17.06771017
2010	148	30.56	18.89	27.35	0.036416667	664.1662989	479.8725527	52662	14.33314815	16.95996767
2010	149	26.11	17.78	23.82	0.000433333	684.3608582	289.9347093	52743	13.85046296	16.9942495
2010	150	26.11	13.33	22.6	0	956.8020012	354.5916822	52821	13.10819444	16.84656517
2010	151	30	16.11	26.18	0.123666667	789.0704057	570.3317973	52896	12.32037037	17.062201
2010	152	30.56	17.78	27.04	0.306483333	503.5565497	397.9287264	52969	11.69206019	17.26933533
2010	153	26.11	14.44	22.9	0	795.9966503	257.1152314	53038	11.1780787	17.1632365
2010	154	28.33	16.11	24.97	0.000383333	918.3023758	528.1212546	53103	10.78074074	17.65288233
2010	155	27.78	18.89	25.33	0.001325	670.8221589	376.7493889	53166	10.47388889	17.8154805
2010	156	28.33	18.89	25.74	0.226383333	534.0558894	354.9314077	53225	10.24743981	18.02828667
2010	157	27.78	18.89	25.33	0.106141667	791.4485343	294.3367865	53281	10.04452315	17.88666383
2010	158	25.56	12.78	22.04	0.0003	1096.404058	343.6602347	53334	9.866256944	16.45915267
2010	159	21.11	10	18.06	0	920.4562131	410.7407976	53383	9.690907407	15.402011
2010	160	22.22	11.67	19.32	3.927258333	255.7260075	586.4355361	53429	11.51217593	14.35362217
2010	161	17.22	12.22	15.85	0.003291667	513.1863292	72.03763554	53471	18.19787037	15.3636005
2010	162	25.56	12.78	22.04	0	685.5874432	487.8993303	53510	16.54025463	15.7367575
2010	163	25.56	13.89	22.35	0.019616667	570.430018	466.7471022	53546	16.13166667	17.05977
2010	164	31.11	19.44	27.9	0.528716667	730.595471	471.1159515	53577	16.24488426	18.25282
2010	165	28.33	16.67	25.12	0.008216667	625.1153143	296.4432709	53606	17.29615741	17.960694
2010	166	25	18.33	23.17	0.003133333	529.8318543	218.5259938	53630	16.98951389	17.5981745
2010	167	23.33	17.78	21.81	0.119383333	485.7824635	254.667279	53651	16.290625	17.85777867
2010	168	28.33	17.22	25.28	0	1173.624179	427.304816	53669	16.03023148	17.73842883
2010	169	23.33	11.67	20.12	0	676.6384707	430.7414102	53682	15.33865741	16.98668783
2010	170	27.22	13.89	23.56	0	778.92801	570.287939	53693	14.58092593	17.60195883
2010	171	31.11	17.78	27.44	0.041833333	1104.615981	504.2371466	53699	14.1225463	18.483505
2010	172	28.89	16.11	25.38	0	1056.244733	419.5338792	53702	13.96097222	18.469874
2010	173	29.44	18.89	26.54	0.345633333	654.9866769	520.0132763	53701	13.9843287	18.414363
2010	174	27.78	20.56	25.79	0.011108333	875.979023	287.0598475	53696	13.41819444	19.31296767
2010	175	31.67	20.56	28.61	0.035641667	1198.900125	494.4710414	53688	12.67912037	19.47840967
2010	176	28.33	16.67	25.12	0	1026.932597	377.6415056	53676	12.12395833	18.99715933
2010	177	27.22	17.22	24.47	0	950.2680028	495.0884594	53661	11.53409722	18.28036817
2010	178	30	19.44	27.1	1.03355	899.8804639	445.5522103	53641	10.92534722	19.30827503
2010	179	31.67	21.11	28.76	0.1209	968.1793801	452.8994062	53619	10.44747685	19.7894444
2010	180	26.67	19.44	24.68	0.017883333	1134.858296	228.502112	53592	10.22023148	19.38931875
2010	181	25	8.89	20.57	0	1057.861714	488.1898581	53562	10.00836343	17.33210468
2010	182	22.22	10	18.86	0	983.406447	539.5923987	53529	9.710104167	16.28866745
2010	183	22.22	10	18.86	0	883.5957742	473.8842121	53491	9.467138889	15.96549992
2010	184	25	12.22	21.49	0	1060.72511	575.3938315	53451	9.256597222	16.36598365
2010	185	30	13.33	25.42	0	1367.643937	575.4017923	53407	9.129048611	17.21038662
2010	186	32.78	18.33	28.81	0	1530.310727	566.473957	53359	9.07025463	18.43653382
2010	187	34.44	20.56	30.62	0	1773.996979	475.0964559	53308	9.000203704	19.31952563
2010	188	33.89	21.11	30.38	0	1710.002764	493.6979527	53254	8.919203704	20.02090323
2010	189	33.89	21.11	30.38	0	1870.65705	496.6455914	53196	8.798393519	20.17848253
2010	190	34.44	22.22	31.08	2.081583333	1197.390857	478.0390558	53135	8.67974537	20.4236936
2010	191	32.78	18.33	28.81	1.728766667	1312.467067	393.325491	53071	8.600766204	20.20084825
2010	192	27.78	14.44	24.11	0	1133.416809	526.2368759	53004	8.562435185	19.30888973
2010	193	30	17.22	26.49	0.73635	682.3568476	568.9932697	52933	8.512090278	18.846274
2010	194	27.78	19.44	25.49	0.059183333	456.26382	344.3965361	52860	9.151511327	19.28224325
2010	195	25.56	19.44	23.88	1.139066667	524.0691574	207.0767711	52783	10.67349393	19.86386675
2010	196	28.33	18.33	25.58	0	848.8172994	313.0350568	52703	10.53832715	20.51307767
2010	197	30.56	20	27.65	0.48655	485.2050045	502.2841651	52620	10.77176436	20.27419867
2010	198	29.44	18.89	26.54	0.000166667	831.2836514	324.9490883	52535	11.19811489	20.522058
2010	199	30	18.89	26.94	0.0028	1335.872475	494.9019878	52446	10.93516714	21.09294767
2010	200	31.67	22.22	29.07	0.00055	1172.862153	516.3066614	52355	10.47982896	20.96582317
2010	201	30.56	18.33	27.19	0.4471	546.8714812	460.5018243	52261	10.01498074	20.39788183
2010	202	29.44	18.89	26.54	0.416091667	750.04759	326.8463358	52164	9.569283319	20.79341983
2010	203	31.11	18.89	27.75	0.344708333	979.5500502	417.0297375	52065	9.840143369	20.67530133
2010	204	29.44	20	26.85	0.001166667	1130.484838	517.4540725	51963	18.36281346	21.33849767
2010	205	33.89	22.22	30.68	0.002166667	1667.306151	440.1859964	51858	17.93393688	22.2691565
2010	206	32.78	22.22	29.88	0.206216667	1058.341802	478.6325924	51751	18.01384083	21.73174067
2010	207	27.22	17.22	24.47	0	1104.311093	280.9097607	51642	17.54778343	20.38504533
2010	208	27.78	16.11	24.57	0	989.1303315	564.0465407	51530	16.72103074	19.73962867
2010	209	29.44	18.33	26.39	0	1062.703218	530.0879409	51417	15.85172796	20.15907417
2010	210	30.56	20	27.65	0.312433333	1242.692256	499.6802603	51300	15.10922574	20.830581
2010	211	28.89	14.44	24.92	0	1191.594979	458.469106	51182	14.43679063	19.49659167
2010	212	25.56	13.33	22.19	0	1046.683227	492.1447399	51062	13.76190447	18.81577583
2010	213	26.67	15.56	23.61	0.0018	1014.72537	468.1407442	50939	12.97434343	19.33938283
2010	214	27.78	18.33	25.18	0	799.9971262	405.8892822	50815	12.43159722	19.10762783
2010	215	25.56	19.44	23.88	0.12175	482.7329491	318.8810838	50688	11.71472222	19.502351
2010	216	28.33	21.67	26.5	0.1883	643.2302471	249.8850359	50560	11.04772685	20.543487
2010	217	32.22	20.56	29.01	0.015533333	1043.26288	360.0498952	50430	10.39558102	20.74403933
2010	218	28.33	18.33	25.58	0.19875	980.2004728	368.1323174	50298	9.799310185	20.11432783
2010	219	25.56	15	22.65	0	950.096899	391.9609626	50164	9.338715278	19.15767588
2010	220	26.67	13.89	23.15	0	1108.238357	461.3835469	50029	9.017106481	18.72209362
2010	221	29.44	15	25.47	0	1455.063619	505.8624984	49892	8.725453704	19.1443672
2010	222	32.22	17.22	28.1	0	1413.836914	508.2015432	49754	8.402168981	20.39187183
2010	223	32.22	20	28.86	0	1543.52506	387.6707473	49614	8.18549537	20.70883933
2010	224	31.67	20	28.46	1.727325	407.2173777	504.0988832	49472	7.974282407	20.33607783
2010	225	23.33	16.67	21.5	0.066308333	456.9723593	142.011406	49330	8.875159722	19.4029686
2010	226	21.67	17.22	20.44	0	729.8387913	170.6905015	49186	8.748203704	19.01914017
2010	227	24.44	19.44	23.07	0.923683333	306.2990266	208.2540976	49040	8.394902778	19.1863359
2010	228	27.22	19.44	25.08	0.000133333	894.7940435	220.199552	48894	8.112761574	20.3943882
2010	229	30	16.67	26.33	0	1297.342299	447.414002	48746	9.779270833	19.55582327
2010	230	27.78	17.78	25.03	0	866.6201794	504.1996425	48597	14.05886574	19.01600127
2010	231	25.56	14.44	22.5	0	779.0633917	269.3019225	48446	13.50287037	18.78472713
2010	232	30	16.11	26.18	0	1085.611031	466.5528336	48295	13.10298611	19.0944217
2010	233	29.44	16.67	25.93	0.0001	1022.523487	459.3626148	48143	12.67074074	19.338694
2010	234	28.33	17.22	25.28	5.16885	519.1962818	305.2765867	47990	12.11421296	20.0564575
2010	235	26.11	17.22	23.67	0.204908333	405.6654593	251.9613934	47836	11.55752315	19.13735567
2010	236	20.56	15	19.03	0.027841667	371.05711	154.316768	47681	11.01418287	18.59942135
2010	237	20.56	15	19.03	0.044958333	441.8330614	171.3983451	47525	10.55359547	18.5540616
2010	238	25	16.67	22.71	0.000158333	877.2703059	277.3875075	47368	10.73124144	18.49079867
2010	239	24.44	10.56	20.62	0	748.6583543	452.4560277	47210	9.966559883	17.46827048
2010	240	25	10.56	21.03	0	779.5339742	544.1718553	47052	9.84790367	17.00308023
2010	241	27.22	12.22	23.1	0	791.4642562	532.4820856	46893	13.54135053	17.81763608
2010	242	30.56	14.44	26.13	0	1024.022671	515.0223554	46734	14.23902658	18.23083208
2010	243	30.56	16.67	26.74	0	1047.837738	507.8833548	46573	21.0060136	18.858482
2010	244	32.22	18.33	28.4	0	1262.067289	484.6265846	46413	18.73539114	19.176745
2010	245	32.22	18.33	28.4	0	1320.47912	489.0368532	46251	17.33957177	19.42058567
2010	246	32.78	18.33	28.81	0.00065	1314.304528	500.022685	46089	16.94166667	19.24038933
2010	247	31.67	15	27.08	0	1431.1609	397.2153217	45927	17.11944444	17.8378315
2010	248	19.44	10.56	17	0	721.8798257	263.0928294	45764	17.65020833	16.02503833
2010	249	20	7.78	16.64	0	679.7199161	411.8094674	45600	17.61363426	15.42989667
2010	250	25.56	8.89	20.97	0	1107.261922	453.7716723	45437	17.40877315	16.72624633
2010	251	31.67	15	27.08	0	1890.012094	490.6103467	45272	17.04531008	17.63306667
2010	252	23.89	13.33	20.99	0.000183333	1038.530398	498.9629391	45108	16.73622579	16.47345883
2010	253	19.44	12.78	17.61	6.67E-05	777.2339625	228.9072148	44943	16.38520925	16.04587
2010	254	20	8.33	16.79	0	748.6275351	287.854556	44778	16.25545464	15.404432
2010	255	22.78	10	19.26	0.660916667	216.9822357	443.0981389	44613	16.32555723	15.72037367
2010	256	20.56	9.44	17.5	0.0016	619.4254481	138.3532834	44447	16.31446347	15.831157
2010	257	25	11.11	21.18	0	1061.000073	447.3836077	44281	16.20494687	15.475162
2010	258	22.78	11.11	19.57	0	990.0210669	495.1574989	44115	16.33088224	15.29362683
2010	259	23.89	10.56	20.22	2.125225	372.4080067	498.4009435	43949	16.3365413	14.41124117
2010	260	17.78	11.67	16.1	0.484125	375.0209321	83.41711642	43783	16.26668302	15.3171325
2010	261	17.78	8.89	15.33	0.005	375.7720653	236.5138935	43617	16.16664971	15.01316017
2010	262	22.78	8.89	18.96	0.0195	480.5608047	448.1550018	43450	16.24153883	15.55488183
2010	263	26.11	11.67	22.14	3.33E-05	1081.792827	328.7217699	43284	15.29496732	15.49155033
2010	264	20.56	7.22	16.89	0	643.9765751	487.6601348	43117	15.21752315	14.45450183
2010	265	25	7.22	20.11	0.01325	635.0261859	474.9955307	42951	15.07918981	15.485618
2010	266	30.56	15	26.28	0.00045	782.4224953	370.3150682	42784	14.94842593	16.52706667
2010	267	28.89	16.11	25.38	0	1217.707535	345.2599415	42618	14.8805787	17.43428883
2010	268	31.11	17.22	27.29	0	1751.510632	400.2062965	42452	14.81395833	17.64784318
2010	269	25.56	10	21.28	0.000125	831.7510312	465.6472302	42286	14.91178241	16.39775938
2010	270	18.33	10	16.04	1.195225	164.7892971	264.794767	42120	18.16018519	16.3030759
2010	271	20	13.33	18.17	1.661683333	426.1130836	97.67199002	41954	17.53288026	17.17121217
2010	272	22.78	12.22	19.88	0	487.310112	293.7770254	41788	18.16664273	15.9976159
2010	273	18.33	12.22	16.65	6.583841667	126.6738748	244.8443872	41623	17.82311012	15.71155092
2010	274	17.78	12.22	16.25	0.844658333	547.663525	17.20545035	41458	17.68195761	15.79209152
2010	275	18.33	5.56	14.82	0	426.5965178	267.2234985	41293	17.51163723	14.53689807
2010	276	16.67	5.56	13.61	0	575.8699083	451.0212277	41129	17.26068391	14.00777527
2010	277	16.67	6.11	13.76	0.53855	278.6348763	332.4176463	40964	17.09293131	13.16021602
2010	278	9.44	6.67	8.68	0.212733333	133.5831472	99.71372896	40801	19.5704895	12.22036588
2010	279	11.11	7.78	10.19	0.127425	190.0250428	70.27359362	40637	19.746095	11.97951245
2010	280	12.22	8.33	11.15	0.039575	463.5628944	84.01049895	40474	17.66742754	12.52746153
2010	281	18.89	7.22	15.68	0	655.8766755	333.077954	40312	17.43414352	12.59559202
2010	282	22.22	7.78	18.25	0	779.6958025	431.1518623	40150	17.21923611	12.95938407
2010	283	22.78	6.67	18.35	0	692.8307783	410.7350108	39989	17.07689815	13.22031737
2010	284	25	6.67	19.96	0.066072917	741.3670975	362.9656105	39828	16.96752315	14.03666288
2010	285	24.44	12.78	21.24	0.1991125	521.5284483	272.4047572	39667	16.80898148	14.40265307
2010	286	20.56	3.33	15.82	0.09274375	566.6405233	338.7784703	39508	16.62826389	13.40818554
2010	287	15.56	3.89	12.35	0.14305	231.1095259	433.4934589	39349	16.50963333	12.48151524
2010	288	12.22	6.11	10.54	0.1139375	468.0303829	76.54962753	39191	16.51572929	12.24523832
2010	289	13.89	6.11	11.75	0.114870833	761.6832293	301.4745139	39033	16.3858017	12.18860042
2010	290	16.11	6.67	13.51	0.122252083	685.4528063	414.0242203	38876	16.1992694	12.04300834
2010	291	19.44	5	15.47	0.162904167	555.0569026	384.5459586	38720	15.29618274	11.7922072
2010	292	11.67	5.56	9.99	0.1466625	282.4429187	121.9373671	38565	14.89679035	11.53524094
2010	293	13.33	2.78	10.43	0.1443875	414.7898982	266.3749362	38411	14.65738309	10.93046638
2010	294	15.56	3.33	12.19	0.1517625	699.3025205	340.0582699	38258	14.49770512	10.7302778
2010	295	13.33	3.33	10.58	0.159147917	490.3280585	276.5238223	38106	14.35053284	10.40743406
2010	296	10.56	3.33	8.57	0.166525	557.1833776	193.6879601	37955	16.87992982	10.2965939
2010	297	21.67	8.89	18.15	0.1739	1012.377238	294.6184747	37804	16.78594907	11.25250118
2010	298	22.78	10	19.26	0.189858333	789.3058313	286.7602931	37655	16.64201389	12.05917473
2010	299	20.56	10.56	17.81	0.18865625	358.6443465	156.3119929	37507	18.37344907	12.63871772
2010	300	20.56	11.11	17.96	0.5158375	632.6654051	205.2850464	37361	18.85055556	13.3486386
2010	301	21.11	12.22	18.67	0.212004167	1297.96509	324.9488776	37215	17.79037037	12.82423333
2010	302	17.78	6.11	14.57	0.217233333	689.7388036	350.6474346	37071	17.45373494	11.80977778
2010	303	9.44	1.11	7.15	0.2224625	444.2267866	152.4889349	36928	17.25069386	10.70099482
2010	304	14.44	1.67	10.93	0.22984375	808.029403	253.4847498	36787	17.10685282	10.50486597
2010	305	10.56	0	7.65	0.232933333	472.1719969	287.0145861	36647	16.99528104	9.941037032
2010	306	8.89	-2.78	5.68	0.240304167	319.3909071	363.1774864	36509	16.90412027	8.970407247
2010	307	8.89	-3.33	5.53	0.247679167	312.2789986	358.6820532	36372	16.82704493	8.417784896
2010	308	11.67	-1.67	8	0.604264583	83.69635213	347.0603367	36237	16.76027923	8.722553301
2010	309	7.22	4.44	6.46	0.2888375	175.9257212	53.49150424	36103	16.70138771	8.858722728
2010	310	7.78	0	5.64	0.269820833	172.1142941	98.35024401	35971	16.64870745	8.423793521
2010	311	6.67	-1.67	4.38	0.277195833	210.7492259	143.4505938	35841	16.60105236	7.886447289
2010	312	7.22	-1.67	4.78	0.284570833	361.6596132	181.1667711	35713	16.63863369	7.829187946
2010	313	12.78	1.67	9.72	0.291952083	368.5225518	327.3520828	35586	16.59491284	8.149008484
2010	314	13.33	2.78	10.43	0.2993375	419.5066571	302.3718473	35462	16.54569608	8.619248341
2010	315	15.56	-0.56	11.13	0.25615	492.2783269	321.9013253	35339	16.51507064	8.298659873
2010	316	14.44	-1.67	10.01	0	481.0964535	329.3415932	35219	16.60239864	7.773909928
2010	317	15.56	-2.78	10.51	0	559.4893169	332.1151153	35100	16.82035856	7.381788416
2010	318	16.11	-2.22	11.07	0	579.0470585	326.8888206	34984	16.76068064	7.210595822
2010	319	16.11	1.11	11.99	0	372.2928587	241.7126488	34870	16.694	7.926034503
2010	320	11.11	5.56	9.58	0.537322917	152.0840852	197.8218608	34759	16.51458333	8.220106238
2010	321	13.33	6.11	11.35	0.203147917	320.9556925	43.49479607	34649	16.33590278	8.635489766
2010	322	10	4.44	8.47	0	232.0091213	66.04341228	34542	16.30016204	8.393011816
2010	323	7.22	0.56	5.39	0.0064375	269.3813889	62.529219	34438	16.16333333	7.490818883
2010	324	8.33	1.67	6.5	0	277.0268488	227.2532191	34336	16.05828704	6.770300967
2010	325	9.44	0	6.85	0	207.7341228	104.4593795	34237	16.08981481	6.267767417
2010	326	10	0.56	7.4	0	298.3917824	251.0667715	34140	16.15921296	6.275037567
2010	327	16.11	7.78	13.82	0	539.9005792	230.8598597	34046	16.21824074	5.522082883
2010	328	16.67	1.11	12.39	0	692.4428835	88.94524287	33954	16.23099537	5.367075917
2010	329	6.11	1.11	4.74	0.507597917	181.2210866	232.371222	33866	16.21050926	4.692047733
2010	330	6.67	1.67	5.29	0.2343625	222.6173954	30.46204522	33780	16.16171296	4.507303117
2010	331	5.56	-1.67	3.57	0.0618	302.8723865	227.8163597	33697	16.07013889	4.25115525
2010	332	1.67	-1.11	0.9	0.027897917	235.2704458	72.6535622	33618	16.03756944	4.071105683
2010	333	5.56	-4.44	2.81	0	198.9130146	277.7794044	33541	16.01733796	3.63967765
2010	334	7.22	-4.44	4.01	0.559314583	144.0269041	264.483164	33467	15.87887446	3.76357255
2010	335	15.56	6.11	12.96	0.634014583	217.6643005	34.12793571	33397	15.8894555	4.9113523
2010	336	8.89	-3.33	5.53	0	225.6602918	57.60852704	33329	15.86546578	4.656933883
2010	337	0	-3.89	-1.07	0	141.7869422	113.9174491	33265	15.8619076	3.979707083
2010	338	0.56	-3.33	-0.51	0	141.1717228	102.745055	33204	15.88406229	3.623346433
2010	339	1.11	-5	-0.57	0	208.3396032	131.7408413	33146	15.8828091	3.401642
2010	340	0	-4.44	-1.22	0	185.6257966	176.1113442	33092	15.87027715	2.840411183
2010	341	-1.67	-5.56	-2.74	0	148.6670345	109.7449013	33041	15.83697799	2.220637133
2010	342	-2.22	-6.67	-3.44	0	170.1421997	106.3818605	32993	15.80759505	1.912908867
2010	343	-2.22	-7.78	-3.75	0	169.1102716	137.286589	32949	15.78530609	1.610951267
2010	344	-1.11	-7.78	-2.94	0.8478	92.37163869	270.6295645	32909	15.75901139	1.4020664
2010	345	-1.11	-6.11	-2.49	0	125.3133763	66.12260494	32872	15.72591363	1.261899918
2010	346	3.33	-6.67	0.58	6.78475	53.99989583	207.9904469	32838	15.69053326	1.35168025
2010	347	6.67	-5.56	3.31	0.14025	286.7707843	41.8859017	32808	15.65119191	1.31521535
2010	348	-2.78	-10.56	-4.92	0.25175	157.1837901	180.0748243	32782	15.61755707	1.07571605
2010	349	-6.11	-10	-7.18	0.0091	133.9123063	127.6609816	32759	15.59661082	0.588993583
2010	350	-4.44	-10	-5.97	0.00675	116.3516088	138.3746129	32740	15.54041847	0.378364073
2010	351	-3.89	-10	-5.57	0	127.3264968	129.4572308	32724	15.52900545	0.236710285
2010	352	-1.11	-6.67	-2.64	0	177.9268931	142.4270718	32712	15.5271928	0.340416425
2010	353	-0.56	-10.56	-3.31	0	125.3856509	168.8094641	32704	15.48297293	0.26541224
2010	354	-1.67	-11.11	-4.26	0.0354	122.916714	193.7815272	32699	15.43098774	0.289377985
2010	355	-1.67	-4.44	-2.43	0.0081	206.3356866	66.61420752	32698	15.45025561	0.294307772
2010	356	1.67	-5	-0.17	0	258.9447398	253.9899676	32701	15.4579538	0.455309307
2010	357	2.78	-3.89	0.94	0.0417	253.2793513	150.3824388	32707	15.43007023	0.623204483
2010	358	1.11	-5	-0.57	0.0011	228.4464871	142.1107338	32717	15.41888099	0.521636233
2010	359	0.56	-5	-0.97	0.0005	180.6076639	230.244037	32731	15.35845911	0.517617083
2010	360	-1.11	-6.11	-2.49	0.0301	171.8522103	92.35657911	32749	15.30844323	0.503288533
2010	361	-2.78	-8.89	-4.46	0	194.8111694	91.38801208	32770	15.26285828	0.45909635
2010	362	-2.22	-8.89	-4.06	0.0014	193.5319113	256.1673566	32794	15.24520167	0.625214433
2010	363	1.11	-6.11	-0.88	0	209.7445961	207.8424362	32822	15.2289549	0.58925275
2010	364	4.44	-7.22	1.24	0.0145	149.7636122	230.7523167	32854	15.24891649	0.549122383
2010	365	3.33	-7.22	0.43	0	147.0148056	121.2339714	32889	15.23998748	0.429551947
