"Shalehills,"	2012	:	input	for	MTCLIM	v4.3				
MTCLIM	v4.3	OUTPUT	FILE	:	Mon	Jan	16	16:32:50	2012	
	yday	Tmax	Tmin	Tday	prcp	VPD	srad	daylen	SoilW	SoilT
		(degC)	(degC)	(degC)	(cm)	(Pa)	(Wm-2)	(s)	(%)	(deg C)
2008	1	4.44	-2.78	2.46	0.945	162.1754386	81.55673806	32928	24.84118681	1.720772803
2008	2	3.89	-5.56	1.29	0.02	187.1368421	184.2072259	32971	24.84500867	1.411811013
2008	3	-3.33	-11.11	-5.47	0	101.5438596	116.9550022	33017	24.77801385	0.986206408
2008	4	-4.44	-10.56	-6.13	0	79.34736842	160.3098205	33066	24.48993615	0.369699542
2008	5	3.33	-9.44	-0.18	0	213.3263158	140.6820507	33119	24.30289022	-0.993061613
2008	6	5.56	-0.56	3.88	0.09	153.9578947	165.329053	33175	24.42096296	-1.068147474
2008	7	7.78	5	7.01	0.035	91.50175439	153.5282293	33234	24.75701615	-0.408666939
2008	8	18.89	6.11	15.38	0.025	564.2736842	164.5801714	33296	24.82320163	1.444749622
2008	9	19.44	8.33	16.39	0.06	537.6280702	115.2150405	33362	24.78120622	4.421266493
2008	10	11.67	-0.56	8.31	0	356.7017544	156.4638598	33431	24.66206255	5.858405151
2008	11	7.78	-0.56	5.49	2.36	221.4175439	77.81834473	33503	26.88574267	5.013335036
2008	12	10.56	2.78	8.42	0	250.8	168.7192643	33579	25.88599119	3.986689363
2008	13	6.11	-2.22	3.82	0	199.2421053	103.5571121	33657	25.20741015	3.98491847
2008	14	3.89	-2.22	2.21	0.12	138.4210526	86.4873445	33738	24.8515283	2.981176346
2008	15	2.78	-2.78	1.25	0	119.7754386	125.341865	33822	24.61273	2.360655456
2008	16	-1.11	-2.78	-1.57	0	32.70175439	136.6269114	33909	24.44569259	2.204580757
2008	17	0	-3.33	-0.92	0.57	65.66315789	43.51633995	33999	24.24578726	1.298709984
2008	18	2.22	-2.22	1	0.33	96.6877193	207.6092832	34092	24.10748119	1.087973723
2008	19	2.78	-6.67	0.18	0	173.9508772	81.96283805	34187	24.080998	0.774053432
2008	20	-1.11	-12.22	-4.17	0	146.877193	157.1267447	34285	24.01269926	0.75717092
2008	21	-10	-13.89	-11.07	0	37.60701754	237.382886	34386	25.44029031	-0.035716884
2008	22	-5	-13.89	-7.44	0	98.44210526	61.29390837	34489	25.05736874	-0.988221172
2008	23	2.78	-6.11	0.33	0	167.4526316	245.9819238	34595	24.75346407	-1.525273974
2008	24	-2.78	-7.78	-4.15	0	76.32280702	139.1490351	34703	24.49029585	-1.677334649
2008	25	-2.22	-10	-4.36	0	109.6210526	252.2249178	34814	24.2651663	-1.776740773
2008	26	-3.89	-10	-5.57	0.04	82.45614035	113.7380433	34926	24.07052163	-1.766705713
2008	27	-2.78	-8.33	-4.31	0	82.82807018	134.4368311	35042	23.94615407	-1.650889314
2008	28	-0.56	-5	-1.78	0	80.60350877	167.1207178	35159	24.37775356	-1.926086078
2008	29	2.22	-2.22	1	0.4	96.6877193	47.08072041	35278	24.66070548	-1.833173228
2008	30	5.56	-1.11	3.72	1.5	164.3087719	262.794649	35400	24.6774317	-1.632590087
2008	31	0.56	-8.89	-2.04	0	149.9578947	244.3308076	35523	26.6623217	-1.455736911
2008	32	1.11	-7.78	-1.33	2.715	149.9017544	36.7580413	35649	25.21985185	-1.372150763
2008	33	2.78	-2.22	1.4	0.005	110.245614	58.43096983	35776	24.97038889	-1.22481247
2008	34	1.11	-5.56	-0.72	0	123.1789474	207.7740561	35905	24.69706944	-1.007110697
2008	35	6.11	-5	3.06	0.02	238.077193	30.73876655	36036	24.43113889	-1.094828927
2008	36	5	0.56	3.78	1.02	115.4596491	64.6984964	36169	24.20090278	-0.909947704
2008	37	13.33	3.33	10.58	0.4	351.2280702	63.13008264	36303	24.08895105	-0.845369141
2008	38	16.67	1.67	12.54	1.01	536.0421053	36.46807312	36440	24.05873611	-0.241376585
2008	39	3.33	-1.11	2.11	0.06	103.8526316	99.33196	36577	24.08775	2.502681071
2008	40	2.22	-2.22	1	0.78	96.6877193	111.3761656	36716	24.46370833	1.285723435
2008	41	4.44	-1.67	2.76	0.21	143.4385965	146.7400625	36857	24.63825	0.750087348
2008	42	-1.11	-16.67	-5.39	0	170.5473684	294.0358449	36999	24.47443056	0.148692102
2008	43	-8.89	-16.67	-11.03	1.91	68.41403509	54.7868428	37143	24.30402778	-0.424723035
2008	44	-3.33	-11.67	-5.63	0.57	106.2385965	71.73673236	37287	24.202625	-0.848674807
2008	45	0.56	-7.78	-1.74	0	138.5403509	316.8443837	37433	24.16998611	-1.0666127
2008	46	2.22	-7.78	-0.53	0	173.5438596	39.11481287	37581	25.82798611	-1.276050306
2008	47	2.78	-11.11	-1.04	0	213.5157895	295.1762024	37729	30.88545833	-0.945129443
2008	48	2.22	-10.56	-1.29	0.23	197.9649123	93.65983011	37879	28.88415278	-0.787283852
2008	49	8.89	-0.56	6.29	0.44	257.7403509	122.434876	38029	27.50966667	-0.499808896
2008	50	8.33	-4.44	4.82	0	295.9298246	221.8254604	38181	29.35793056	-0.5432
2008	51	-1.11	-10	-3.56	0	128.9964912	229.4329229	38334	29.12140278	-0.494
2008	52	-3.89	-12.78	-6.33	0	106.4491228	337.7050344	38487	27.15173611	-0.7968
2008	53	-2.22	-12.78	-5.13	1.05	132.2526316	67.95648817	38642	26.72233333	-0.9249
2008	54	-2.78	-5.56	-3.54	0.08	46.58245614	171.7340824	38798	26.41920833	-0.6896
2008	55	1.67	-8.89	-1.24	0	172.5333333	354.1384876	38954	25.80193056	-0.2881
2008	56	5	-8.89	1.18	0	247.7824561	278.1183061	39111	25.18843056	-0.5266
2008	57	2.78	-5	0.64	0.79	153.2701754	40.85572388	39269	25.04233333	-0.5843
2008	58	1.67	-3.33	0.29	0.01	102.5754386	189.782294	39428	24.87805556	-0.7795
2008	59	-2.22	-11.67	-4.82	0	124.0421053	309.3845996	39587	24.77977778	-0.8064
2008	60	1.67	-12.22	-2.15	1.565	197.9789474	204.949808	39747	24.72283333	-1.2097
2008	61	1.67	-5.56	-0.32	0	135.3192982	226.195772	39907	25.73452778	-0.6249
2008	62	4.44	-5.56	1.69	0	200.9473684	297.8888637	40068	25.61863889	-0.4885
2008	63	15.56	1.67	11.74	2.165	483.3684211	354.0134983	40230	25.55690278	0.0143
2008	64	7.78	1.67	6.1	3.805	176.9894737	17.54554139	40392	25.61105556	-0.405
2008	65	4.44	-2.78	2.46	0	162.1754386	79.80973028	40555	25.62538889	0.4336
2008	66	7.78	-2.78	4.88	1.01	257.2491228	361.511083	40718	25.46355556	2.5235
2008	67	7.22	-1.11	4.93	2.03	213.8035088	96.51967506	40882	25.19291667	1.5863
2008	68	3.33	-7.22	0.43	0	192.8140351	33.57996545	41046	25.04433333	2.2013
2008	69	0	-6.67	-1.83	0	114.4140351	368.913064	41210	24.85984615	1.5736
2008	70	6.11	-3.89	3.36	0	223.8807018	265.8667145	41375	25.25486111	1.3546
2008	71	6.11	1.11	4.74	0.01	136.2807018	231.3483689	41540	25.14230556	2.6305
2008	72	4.44	-3.33	2.31	0	170.8210526	132.580395	41705	24.96531944	2.5031
2008	73	13.33	-3.33	8.75	0.015	456.6035088	358.898037	41870	24.83959722	3.2907
2008	74	15	3.89	11.94	0.335	414.0701754	283.568022	42036	24.78763889	4.925
2008	75	10	1.11	7.56	0	265.5368421	216.8032809	42202	24.77966667	5.7099
2008	76	5.56	-3.89	2.96	0	208.5403509	144.2371425	42368	24.71934722	4.1373
2008	77	7.78	-3.89	4.57	0.1	272.2807018	407.3001923	42534	25.22963889	3.6408
2008	78	5.56	2.22	4.64	1.52	93.68421053	47.19117517	42701	25.50986111	3.5791
2008	79	12.78	1.67	9.72	0.21	362.0140351	67.89009619	42867	25.262625	4.6181
2008	80	3.89	-2.78	2.06	0	147.677193	298.3503616	43033	25.06316667	4.9467
2008	81	6.11	-2.78	3.67	1.19	207.922807	418.2075031	43200	24.94108333	3.6668
2008	82	5.56	-6.11	2.35	0	235.8736842	253.9390069	43366	24.87194444	2.3188
2008	83	6.11	-5.56	2.9	0	244.554386	457.109121	43533	24.78891667	2.1953
2008	84	5.56	-4.44	2.81	0	216	336.0835712	43699	25.00286111	1.8721
2008	85	9.44	-3.89	5.78	0	324.4350877	431.2289546	43865	25.52988889	2.8624
2008	86	12.22	1.67	9.32	0.125	339.4175439	290.4805382	44032	25.33177778	5.7417
2008	87	6.67	2.22	5.44	0.615	128.1684211	52.39828241	44198	25.23602778	4.0841
2008	88	7.22	-2.78	4.47	0	240.3929825	63.28136135	44363	25.08973611	4.5993
2008	89	7.22	-4.44	4.01	0	262.7508772	480.2096225	44529	24.95969444	4.1208
2008	90	10	-4.44	6.03	0	348.8912281	452.8092756	44695	24.85005556	4.3936
2008	91	13.33	4.44	10.89	0.155	325.3473684	204.4675463	44860	24.76504167	5.6717
2008	92	21.11	1.11	15.61	0.005	779.5157895	157.8205729	45025	24.69334722	8.2843
2008	93	8.33	-2.78	5.28	0	274.5263158	425.5467915	45190	25.56780556	6.7124
2008	94	9.44	-2.22	6.24	0.9	302.6736842	290.9124905	45354	27.18611111	4.6482
2008	95	11.67	3.33	9.38	0.19	281.5789474	102.7860251	45518	27.10865278	5.5793
2008	96	12.22	4.44	10.08	0	277.5157895	254.5102779	45681	26.72851389	7.2863
2008	97	15	4.44	12.1	0	401.4596491	372.3560391	45845	26.30181944	7.5067
2008	98	8.33	5.56	7.57	0	94.65263158	116.1213188	46007	25.50691667	6.8478
2008	99	14.44	6.11	12.15	0	332.6807018	242.2582249	46169	25.46955556	8.0315
2008	100	16.11	6.11	13.36	0	414.5754386	237.2488992	46331	27.00468056	9.2022
2008	101	20.56	6.67	16.74	0.74	649.7052632	445.5038673	46492	27.88743056	10.3452
2008	102	20	11.67	17.71	0.19	459.0105263	133.3791745	46653	28.21280556	11.1725
2008	103	18.33	3.89	14.36	0.225	581.7052632	425.3229517	46813	27.14422222	11.8463
2008	104	8.33	0.56	6.19	0.015	218.6315789	157.8777953	46972	26.75602778	8.5144
2008	105	10.56	-2.22	7.04	0	340.6947368	374.3674775	47131	26.23923611	7.3508
2008	106	15	0	10.88	0	484.5333333	526.7267113	47289	25.45226389	7.7523
2008	107	20	2.22	15.11	0	701.6982456	517.090933	47446	25.84961111	8.6629
2008	108	26.11	7.22	20.92	0	1022.021053	519.9581084	47602	25.42356944	9.795
2008	109	28.33	10.56	23.44	0	1130.484211	505.4698351	47758	25.182875	11.6437
2008	110	27.22	12.22	23.1	3.12	984.1192982	392.192102	47912	24.9495	12.2059
2008	111	15.56	12.78	14.79	0.24	144.8140351	108.5700976	48066	24.78716667	11.9424
2008	112	21.11	11.67	18.51	0	532.8070175	260.6725205	48219	25.1175	13.255
2008	113	22.22	10	18.86	0	666.6666667	391.0068144	48370	25.36656944	13.5852
2008	114	23.89	10.56	20.22	0	768.9403509	399.7207708	48521	25.19846154	13.2087
2008	115	22.22	11.11	19.17	0	629.8245614	493.5122479	48671	28.38386363	13.3792
2008	116	25	11.11	21.18	2.11	836.3719298	368.6205807	48819	27.20683687	13.3086
2008	117	27.22	10.56	22.64	0.43	1034.203509	373.6342962	48966	26.52347607	14.8728
2008	118	19.44	7.22	16.08	2.13	568.5824561	391.8520209	49112	26.18256689	14.7992
2008	119	11.11	5	9.43	0	217.0666667	81.99197858	49257	27.22080667	11.357
2008	120	13.89	2.78	10.83	0	387.2912281	420.8177045	49401	27.43887704	11.2974
2008	121	12.22	3.33	9.78	0	304.245614	387.0915157	49543	27.30493237	9.1851
2008	122	15	3.89	11.94	0	414.0701754	246.4438097	49683	26.9913157	8.9276
2008	123	23.33	9.44	19.51	0.66	761.6350877	299.7608773	49823	27.20502467	11.1113
2008	124	19.44	10	16.85	0.82	484.7017544	275.6880484	49960	27.49463111	13.1233
2008	125	16.67	2.78	12.85	0	516.7719298	369.4397323	50096	27.21689489	12.4294
2008	126	20.56	5.56	16.43	0	674.7789474	520.973093	50231	26.55715333	12.1597
2008	127	22.78	8.33	18.81	0	752.9473684	400.9216816	50363	26.06791133	12.4619
2008	128	26.11	12.78	22.44	0.21	870.1122807	473.6198182	50495	25.66962941	13.7424
2008	129	21.11	6.67	17.14	0.99	684.2807018	200.8964808	50624	25.30785741	14.5216
2008	130	12.22	7.78	11	0	179.5649123	99.98871837	50751	24.97639044	12.4434
2008	131	18.33	6.67	15.12	0.05	518.9263158	369.5379814	50877	24.59550919	12.4035
2008	132	16.11	1.11	11.99	2.35	518.3789474	218.4225485	51000	24.17312711	10.2045
2008	133	10	2.22	7.86	0	242.4	132.9423554	51122	23.68982022	9.611281491
2008	134	22.22	7.22	18.1	0.015	743.0105263	558.6080449	51241	23.30833333	10.73638881
2008	135	21.67	10	18.46	0.115	628.645614	281.0099731	51358	23.16138889	11.543916
2008	136	22.78	8.89	18.96	1.31	738.0280702	404.3616092	51473	22.86466667	12.97633227
2008	137	11.11	5.56	9.58	0.02	201.5017544	63.44338154	51586	22.55348611	11.87554522
2008	138	18.89	6.67	15.53	0.61	550.5192982	210.1245758	51697	22.51033333	11.121499
2008	139	15.56	4.44	12.5	0.05	428.0421053	232.0697937	51805	23.0135	11.06530266
2008	140	12.78	4.44	10.49	0.98	301.1508772	332.1825376	51910	22.99288889	10.41762808
2008	141	12.78	6.11	10.94	0.47	256.322807	146.0197051	52014	22.74579167	9.734299521
2008	142	15	6.11	12.56	0.12	359.3473684	286.2042367	52114	22.38413986	9.741501153
2008	143	13.33	6.67	11.5	0	264.9403509	373.4296083	52212	21.95622222	10.495991
2008	144	18.89	6.11	15.38	0	564.2736842	482.9785484	52308	21.54861111	10.6629701
2008	145	21.67	6.11	17.39	0	731.9578947	524.3240206	52400	21.40848611	11.7883573
2008	146	23.89	9.44	19.92	0	801.9157895	575.8871407	52490	21.17988889	12.4449837
2008	147	29.44	13.89	25.17	0	1131.242105	483.5797474	52577	20.91163889	13.8882973
2008	148	27.22	7.22	21.72	0	1109.866667	325.5737342	52662	20.74444444	16.4467
2008	149	19.44	6.11	15.78	0	596.3157895	578.2885495	52743	20.62598601	13.8455082
2008	150	24.44	8.33	20.01	0	871.8105263	564.3273739	52821	20.35720833	12.9838554
2008	151	26.11	12.22	22.29	0.22	889.5859649	454.0089102	52896	20.30055556	13.4247299
2008	152	27.22	17.78	24.62	0	745.4877193	351.5133076	52969	20.32265278	17.9177
2008	153	25.56	10	21.28	0	913.1789474	481.4605998	53038	20.30651389	16.5128
2008	154	25	13.33	21.79	0	757.5298246	538.0680258	53103	20.21226389	15.2722
2008	155	27.78	15	24.26	2.01	930.4982456	377.0634719	53166	20.05238889	15.4372
2008	156	21.11	17.78	20.19	0.15	232.4	89.38860279	53225	19.91719444	16.5034
2008	157	28.33	19.44	25.89	0	758.1894737	344.6269053	53281	19.86480556	18.7583
2008	158	32.78	20.56	29.42	0	1181.515789	520.9941825	53334	19.78256944	21.178
2008	159	33.33	23.33	30.58	0	1067.480702	511.9676115	53383	19.72629545	21.7623
2008	160	32.22	22.78	29.62	0	969.2842105	426.6853657	53429	19.48665672	22.3267
2008	161	33.89	21.67	30.53	1.09	1251.333333	542.3240804	53471	19.49756944	22.7132
2008	162	32.22	15.56	27.64	0.11	1357.122807	404.8713762	53510	19.60154167	21.6564
2008	163	28.33	16.11	24.97	0	934.1684211	571.7319417	53546	19.59133333	20.1713
2008	164	30.56	17.78	27.04	0.04	1079.873684	543.2950856	53577	19.53244444	19.9801
2008	165	31.67	19.44	28.31	0.065	1115.017544	436.4955724	53606	19.43845833	20.49
2008	166	25	15.56	22.4	0.005	661.0736842	178.2171427	53630	19.284625	20.5751
2008	167	27.22	16.67	24.32	0.68	803.0315789	542.5295622	53651	19.09666667	20.1508
2008	168	26.67	13.89	23.15	0.82	875.8596491	352.0141057	53669	19.02105556	18.5335
2008	169	19.44	13.33	17.76	0.14	352.6877193	295.7238919	53682	19.24101389	16.476
2008	170	18.89	8.89	16.14	0	487.4385965	228.4188205	53693	19.46805556	15.2992
2008	171	20	11.11	17.56	0	480.1614035	341.5539613	53699	19.45323611	14.1468
2008	172	26.11	13.33	22.6	0	849.5789474	469.5009655	53702	19.36152778	16.1564
2008	173	28.33	15	24.67	1.01	982.3789474	510.2036772	53701	19.26088889	17.6144
2008	174	26.67	15.56	23.61	0.03	805.2491228	534.5391012	53696	19.18515278	19.0091
2008	175	25.56	12.78	22.04	0.1	823.9719298	473.4247623	53688	18.95659722	18.5953
2008	176	25	13.33	21.79	0	757.5298246	425.3565386	53676	18.70516667	17.1153
2008	177	27.22	15	23.86	0.15	879.6982456	435.4690633	53661	18.47506944	16.5039
2008	178	28.33	18.33	25.58	1.2	822.3719298	304.5884806	53641	18.29502778	22.0594
2008	179	26.67	19.44	24.68	0	595.7403509	279.0045985	53619	17.98198611	19.6648
2008	180	28.89	18.89	26.14	0.04	847.0035088	347.5272436	53592	17.63766667	20.941
2008	181	27.22	17.22	24.47	0.14	774.9263158	307.3999926	53562	17.30752778	20.2485
2008	182	25.56	15.56	22.81	0	708.1122807	412.1703685	53529	17.02372222	19.7455
2008	183	22.78	13.33	20.18	0	584.9122807	296.3731067	53491	16.73645833	18.1331
2008	184	27.22	15	23.86	0.02	879.6982456	557.4579428	53451	16.42352778	18.2794
2008	185	25.56	18.33	23.57	0.02	561.3684211	229.7746993	53407	16.23468056	17.9708
2008	186	23.89	17.78	22.21	2.12	450.7157895	199.5065691	53359	16.12191667	18.6874
2008	187	24.44	16.11	22.15	0	587.5438596	254.3768457	53308	16.07323611	19.0388
2008	188	27.78	17.22	24.88	0.01	827.3754386	366.7843289	53254	16.11822222	19.9019
2008	189	27.22	18.89	24.93	0	682.4421053	295.1644113	53196	16.29031944	20.8504
2008	190	30.56	18.89	27.35	0.44	1022.140351	500.663239	53135	16.34354167	21.9337
2008	191	26.67	16.11	23.76	0	779.2982456	188.3800368	53071	16.31868056	21.1399
2008	192	26.67	15	23.46	0	829.9649123	560.2894666	53004	16.18322222	20.4722
2008	193	28.33	16.67	25.12	0	908.1964912	467.9834743	52933	16.01359722	19.64
2008	194	31.11	19.44	27.9	0.33	1052.449123	515.7351613	52860	15.86805556	21.3212
2008	195	27.78	17.22	24.88	0	827.3754386	351.4795195	52783	15.81918056	22.1634
2008	196	26.67	15.56	23.61	0	805.2491228	516.4073353	52703	15.69241667	20.6779
2008	197	28.33	16.11	24.97	0	934.1684211	552.0816283	52620	15.51763889	19.4275
2008	198	31.11	17.22	27.29	0	1166.105263	549.0166763	52535	15.30476389	20.4798
2008	199	31.67	20	28.46	0.12	1083.508772	433.4414143	52446	15.08570833	21.7464
2008	200	32.22	21.11	29.17	0	1081.25614	406.3133238	52355	14.92740278	22.1067
2008	201	31.67	20	28.46	0.385	1083.508772	510.4077738	52261	14.86430556	22.5468
2008	202	32.22	18.89	28.56	0.005	1208.421053	401.8110351	52164	14.78243056	21.804
2008	203	29.44	18.33	26.39	0.4	934.6666667	396.6828436	52065	14.63769444	22.0442
2008	204	28.89	19.44	26.29	1.29	814.6315789	407.8962156	51963	14.46705556	21.8896
2008	205	23.33	15	21.04	1.04	552.8491228	131.4105582	51858	14.30076389	19.7251
2008	206	25	14.44	22.1	0	711.6350877	339.2866022	51751	14.14508333	18.4636
2008	207	27.78	15.56	24.42	0	906.5894737	522.0570141	51642	14.00820833	19.1808
2008	208	28.33	18.33	25.58	0	822.3719298	423.4889804	51530	13.86080556	19.8167
2008	209	27.22	15.56	24.01	0	855.3824561	476.9491179	51417	13.83761111	20.939
2008	210	28.89	17.22	25.68	0	935.6210526	479.7519874	51300	13.81561111	19.8497
2008	211	30	17.78	26.64	0.52	1021.207018	463.9136143	51182	13.71033333	20.9743
2008	212	29.44	18.33	26.39	0	934.6666667	321.9550661	51062	13.59379167	20.4167
2008	213	28.89	17.78	25.83	0	907.4596491	451.1731885	50939	13.48069444	21.7505
2008	214	28.33	18.89	25.74	0.01	791.0035088	472.7853389	50815	13.36591667	20.7215
2008	215	27.78	16.11	24.57	0	881.4526316	391.837334	50688	13.23276389	20.8649
2008	216	25.56	15	22.65	0	733.6140351	389.0972639	50560	13.10697222	19.5564
2008	217	27.78	16.67	24.72	0.1	855.0596491	462.2939678	50430	13.02681944	19.882
2008	218	24.44	19.44	23.07	0.39	394.4982456	141.7211434	50298	12.94525	20.0801
2008	219	28.89	16.67	25.53	0.05	962.4561404	512.0053105	50164	12.87140278	21.4863
2008	220	26.67	14.44	23.31	0.1	853.4947368	334.6494378	50029	12.82344444	19.0401
2008	221	23.89	12.22	20.68	0	712.2807018	418.7378811	49892	12.74548611	18.0449
2008	222	24.44	13.89	21.54	0.02	690.2175439	492.8432314	49754	12.65415278	17.3017
2008	223	25	14.44	22.1	0.04	711.6350877	450.0518889	49614	12.60409722	17.7022
2008	224	21.67	14.44	19.68	0	453.9789474	298.8048092	49472	12.68559722	17.0635
2008	225	24.44	12.78	21.24	0	734.6105263	390.5205959	49330	12.83066667	18.0608
2008	226	27.78	13.89	23.96	0.55	974.7929825	408.8439346	49186	12.92170833	18.4067
2008	227	25.56	15.56	22.81	0	708.1122807	314.3046962	49040	12.97277778	18.3067
2008	228	25.56	12.78	22.04	0	823.9719298	417.8511791	48894	13.00169444	17.9058
2008	229	25.56	14.44	22.5	0	757.9157895	459.8401475	48746	13.00447222	17.3273
2008	230	27.22	15	23.86	0	879.6982456	454.7557989	48597	12.97548611	17.8635
2008	231	29.44	17.22	26.08	0	991.4596491	490.2001763	48446	12.95429545	18.8181
2008	232	26.11	10	21.68	0	957.4807018	353.0493832	48295	12.95200438	19.0077
2008	233	25.56	11.11	21.58	0	880.4421053	525.160322	48143	12.90664533	17.2201
2008	234	29.44	12.78	24.86	0	1168.575439	503.8822944	47990	12.81616155	17.6922
2008	235	30	16.11	26.18	0	1099.087719	496.8025663	47836	16.73458724	19.4154
2008	236	27.78	17.78	25.03	0	798.3508772	456.1325107	47681	16.85100781	19.3497
2008	237	31.11	18.89	27.75	0.13	1082.968421	437.8265093	47525	16.46344132	20.0593
2008	238	27.78	12.78	23.65	0	1014.603509	489.9110894	47368	17.02705078	19.548
2008	239	26.11	13.33	22.6	0.003895833	849.5789474	485.4073376	47210	18.11598585	17.0924
2008	240	26.67	13.89	23.15	0.634125	875.8596491	401.4482947	47052	18.09778533	16.772
2008	241	17.78	15.56	17.17	0.228345833	133.9719298	78.59477223	46893	17.99400052	16.4272
2008	242	21.11	16.67	19.89	0	298.2175439	140.3166044	46734	17.86469314	17.5103
2008	243	27.22	12.22	23.1	0	984.1192982	279.7419892	46573	17.69101415	19.2052
2008	244	27.22	13.33	23.4	0	945.6491228	494.5447807	46413	17.49545269	17.374
2008	245	26.67	12.78	22.85	0	917.2561404	498.7167024	46251	17.29692057	16.8865
2008	246	29.44	14.44	25.32	0	1110.919298	484.8048478	46089	17.01465306	17.0657
2008	247	30.56	15.56	26.43	0	1179.347368	466.300442	45927	16.94772222	18.143
2008	248	31.67	16.11	27.39	0	1274.596491	439.9175781	45764	16.81704167	19.017
2008	249	31.11	20.56	28.21	0.05584375	986.9403509	413.370633	45600	16.74169444	19.0878
2008	250	22.78	12.78	20.03	0.001297917	607.6070175	93.73744586	45437	16.56611111	20.0775882
2008	251	25	13.89	21.94	0.002595833	735.1508772	381.7427406	45272	16.36479167	19.4118169
2008	252	26.67	13.89	23.15	0.62999375	875.8596491	434.8500903	45108	16.24084722	18.8064471
2008	253	20	9.44	17.1	0.0122	537.7473684	93.92706678	44943	16.35459722	18.3214287
2008	254	21.11	10.56	18.21	0.00726875	572.877193	440.0863344	44778	17.20230556	17.1658972
2008	255	20.56	13.33	18.57	0.68049375	426.7087719	273.2791436	44613	18.22163889	16.6813304
2008	256	21.11	18.33	20.35	0.05988125	197.4105263	75.90225164	44447	18.32061111	17.8936506
2008	257	24.44	19.44	23.07	0.0077875	394.4982456	180.4023184	44281	18.355375	19.4112524
2008	258	29.44	18.89	26.54	0	904.1824561	336.2415681	44115	18.40801389	21.0996719
2008	259	22.78	11.67	19.72	0	649.7964912	266.366434	43949	18.40375	20.4228364
2008	260	20	9.44	17.1	0.002595833	537.7473684	201.3980276	43783	18.39069444	17.5084358
2008	261	23.33	10	19.67	0	745.277193	422.3967687	43617	18.36829167	16.869196
2008	262	21.11	7.78	17.44	0	656.7087719	392.8790664	43450	18.33423611	17.0324494
2008	263	20.56	8.33	17.19	0	606.2245614	372.9638551	43284	18.28872727	15.891482
2008	264	21.11	10	18.06	0.003895833	591.4526316	361.739173	43117	18.26073611	15.3333
2008	265	24.44	10	20.47	0.002595833	827.4035088	360.9622135	42951	18.23997222	14.8901
2008	266	19.44	7.78	16.24	0	553.522807	167.3152362	42784	18.19390278	15.0283
2008	267	21.11	8.89	17.75	0	625.8315789	361.6367938	42618	18.12318056	14.3031
2008	268	23.33	9.44	19.51	0	761.6350877	403.5169841	42452	18.05986111	14.2116
2008	269	20.56	11.11	17.96	0.00519375	516.3438596	319.3205971	42286	18.02627778	14.3387
2008	270	17.78	12.22	16.25	0.307825	297.5859649	74.11897514	42120	17.98427778	14.8469
2008	271	21.11	16.67	19.89	0.688397917	298.2175439	127.2574915	41954	17.96320833	16.9718
2008	272	22.22	13.89	19.93	0.0077875	519.9087719	188.4615906	41788	17.94831944	18.1927
2008	273	20.56	10	17.65	0	555.0736842	233.8982037	41623	17.91873611	16.9233
2008	274	18.33	10	16.04	0.233795833	417.4245614	164.6205606	41458	17.85144444	14.3138
2008	275	15.56	8.33	13.57	0	320.5614035	149.4904031	41293	17.77356944	13.4443
2008	276	12.78	8.33	11.56	0	185.5578947	208.083557	41129	17.70588889	12.0071
2008	277	15	5	12.25	0.103904167	388.154386	140.5472662	40964	17.665375	11.4295
2008	278	14.44	6.11	12.15	0	332.6807018	197.6512806	40801	17.61311111	10.524
2008	279	16.67	7.78	14.22	0.002595833	396.3438596	356.5936135	40637	17.56725	11.7751
2008	280	16.67	2.22	12.69	0.0181875	526.7087719	319.0773289	40474	17.52979167	11.6041
2008	281	16.67	2.78	12.85	0.01688125	516.7719298	368.2296588	40312	17.89472222	9.4189
2008	282	16.67	7.22	14.07	0.035064583	412.7508772	184.8099752	40150	18.89706944	10.4903
2008	283	21.67	8.89	18.15	0	662.4070175	330.2082047	39989	19.0955	14.3169
2008	284	21.11	6.11	16.99	0	696.8982456	356.0373499	39828	19.18830556	12.8512
2008	285	21.11	5.56	16.83	0	708.7719298	350.3828877	39667	19.21426389	11.8949
2008	286	22.78	7.78	18.65	0	767.0315789	343.4560852	39508	19.24697222	12.3684
2008	287	25	8.89	20.57	0	899.6140351	256.9834518	39349	19.30802778	12.6187
2008	288	26.11	8.89	21.37	0	985.8385965	284.9209752	39191	19.37172222	13.5093
2008	289	23.33	12.78	20.43	0	649.0245614	261.039629	39033	19.44184615	15.6443
2008	290	20	8.89	16.94	0	555.0877193	80.07861469	38876	19.49663889	15.174
2008	291	12.22	2.78	9.62	0	316.6035088	128.090029	38720	19.53893056	10.9642
2008	292	10.56	-1.11	7.35	0	324.5192982	238.9368858	38565	19.579875	8.5683
2008	293	11.67	-1.11	8.15	0.003895833	365.1789474	339.9667029	38411	19.61920833	7.4745
2008	294	16.11	-0.56	11.53	0.002595833	541.9649123	301.3850085	38258	19.66894444	6.9168
2008	295	10.56	2.78	8.42	0	250.8	177.8544959	38106	19.69229167	7.7295
2008	296	9.44	0.56	7	0	256.554386	231.2721803	37955	19.70386111	7.525
2008	297	12.22	0.56	9.01	0	359.8245614	317.6944452	37804	19.71144444	6.5568
2008	298	13.89	6.67	11.9	1.540483333	290.6175439	137.1073108	37655	19.70369444	7.162
2008	299	14.44	3.33	11.39	0.005191667	400.4912281	35.31014122	37507	19.68958333	9.7067
2008	300	16.67	3.89	13.15	0	494.9824561	295.4221544	37361	19.92944444	8.2514
2008	301	8.89	3.89	7.51	0.007791667	161.8526316	205.0201637	37215	20.52190278	8.6574
2008	302	6.67	1.11	5.14	0.18833125	153.4105263	79.80880792	37071	20.895375	7.2192
2008	303	4.44	-0.56	3.07	0.001297917	122.6666667	83.20763058	36928	21.394875	4.8777
2008	304	8.89	-0.56	6.29	0	257.7403509	297.1739547	36787	21.541875	5.0116
2008	305	18.33	3.33	14.21	0	592.1684211	280.8324546	36647	21.60151389	5.8047
2008	306	17.78	4.44	14.11	0	540.7368421	184.735846	36509	21.62172222	8.6444
2008	307	9.44	3.89	7.92	0	182.1403509	149.697978	36372	21.62091667	8.2259
2008	308	14.44	7.22	12.46	0	300.322807	204.8214155	36237	21.64177778	8.762
2008	309	13.89	8.89	12.51	0.01	218.3298246	79.64028153	36103	21.66679167	9.5742
2008	310	18.33	8.89	15.74	0	454.7368421	204.1674259	35971	21.667125	10.8009
2008	311	20	10	17.25	0	519.4947368	192.8246119	35841	21.66677778	11.8183
2008	312	21.67	9.44	18.31	0.24	645.9719298	242.7611242	35713	21.65722222	12.1237
2008	313	12.78	4.44	10.49	0	301.1508772	106.3608986	35586	21.80234722	10.6495
2008	314	8.33	1.67	6.5	0	195.6070175	115.7682617	35462	22.14920833	8.3394
2008	315	3.89	0.56	2.97	0	84.36491228	122.8845585	35339	22.40330556	6.6562
2008	316	4.44	0	3.22	0	111.4736842	96.25614131	35219	22.67784722	5.8877
2008	317	10	0.56	7.4	1.51	276.2175439	179.5553247	35100	23.05018056	6.4797
2008	318	8.89	5.56	7.97	0	115.0035088	30.35022151	34984	24.49247222	6.9048
2008	319	11.67	8.33	10.75	0.59	135.8245614	74.24529378	34870	24.42456944	8.7028
2008	320	13.33	2.22	10.28	0.05	374.4701754	32.74735903	34759	24.25452778	9.6978
2008	321	5	0.56	3.78	0.04	115.4596491	89.60537957	34649	24.12415278	6.4409
2008	322	2.78	-3.89	0.94	0	137.4175439	93.07491068	34542	24.03583333	4.6808
2008	323	-0.56	-6.67	-2.24	0	103.4105263	166.5564517	34438	23.93776389	2.3604
2008	324	0	-5.56	-1.53	0	99.83157895	171.7674026	34336	23.81723611	1.2979
2008	325	3.89	-2.78	2.06	0.15	147.677193	98.69696701	34237	23.71066667	2.4984
2008	326	-1.11	-6.67	-2.64	0	92.70175439	108.8370919	34140	23.59127778	2.2379
2008	327	-1.67	-6.11	-2.89	0	74.85614035	138.2662728	34046	24.16752778	1.3775
2008	328	2.78	-6.67	0.18	0.68	173.9508772	222.9220345	33954	25.05019444	0.8532
2008	329	2.22	-5.56	0.08	0.94	147.7754386	63.16543969	33866	26.65313889	0.3261
2008	330	3.89	0	2.82	0.05	96.26666667	124.4783508	33780	26.45775	1.0751
2008	331	1.67	0	1.21	0	39.15789474	69.82353114	33697	25.399125	1.208
2008	332	5.56	-2.22	3.42	0	183.4526316	202.0617746	33618	24.479	1.4259
2008	333	5.56	-1.11	3.72	0	164.3087719	175.9840627	33541	24.48791667	1.0447
2008	334	5.56	-3.33	3.11	0.73	200.645614	205.3450311	33467	24.64959722	1.2493
2008	335	3.89	0	2.82	0.41	96.26666667	19.8097481	33397	24.93077778	0.9179
2008	336	6.11	0	4.43	0	159.4596491	91.96826105	33329	25.73040278	2.2975
2008	337	2.22	-5	0.24	0	140.3578947	92.67357555	33265	27.79095833	1.7823
2008	338	6.67	-4.44	3.61	0	246.7719298	207.3616795	33204	26.74704167	0.7078
2008	339	7.78	-3.89	4.57	0	272.2807018	22.218534	33146	26.08330556	2.1313
2008	340	-1.67	-8.33	-3.5	0	102.2736842	107.7418943	33092	25.04141667	0.4909
2008	341	-1.67	-8.33	-3.5	0.03	102.2736842	102.052615	33041	24.82083333	-0.112
2008	342	-3.89	-9.44	-5.42	0	76.76491228	110.2195098	32993	28.70394444	-0.3435
2008	343	-1.11	-8.89	-3.25	0	118.2526316	59.77107684	32949	26.83577778	-0.8151
2008	344	11.67	-2.22	7.85	1.47	380.6105263	134.4823695	32909	26.88941667	-0.3606
2008	345	12.22	-1.11	8.56	1.365	386.2526316	23.08586865	32872	26.77970833	1.9845
2008	346	1.67	-1.11	0.9	1.145	62.37894737	15.32999255	32838	26.63780556	2.1969
2008	347	1.67	-6.11	-0.47	0	142.4561404	58.39600449	32808	26.42727778	1.3759
2008	348	-0.56	-6.11	-2.08	0	96.21052632	183.5548715	32782	26.05048611	-0.008
2008	349	9.44	-1.67	6.39	0.265	294.477193	190.5797528	32759	25.24579167	0.1091
2008	350	13.89	-1.67	9.61	0.315	459.7824561	53.64268021	32740	24.46156944	2.387
2008	351	1.11	-2.22	0.19	1.07	70.59649123	51.67989269	32724	24.06430556	1.937
2008	352	3.33	-0.56	2.26	0	92.91929825	30.94271461	32712	23.88234722	1.0235
2008	353	2.22	-0.56	1.46	3.18	64.64561404	67.38476542	32704	23.77465278	1.5102
2008	354	5.56	-4.44	2.81	0.02	216	11.70604275	32699	23.73129167	0.7297
2008	355	-2.78	-5.56	-3.54	0.12	46.58245614	104.3030304	32698	23.97126389	0.2879
2008	356	1.67	-15.56	-3.07	0	214.0280702	138.1763385	32701	24.85093056	-0.0533
2008	357	-7.78	-14.44	-9.61	0	66.78596491	198.0114409	32707	24.54370833	-0.4304
2008	358	1.11	-11.11	-2.25	3.335	179.6561404	113.2422794	32717	24.2445	-1.0307
2008	359	9.44	-0.56	6.69	0.315	276.5824561	33.96806172	32731	24.06461111	-0.4262
2008	360	0	-5.56	-1.53	0	99.83157895	131.5942855	32749	23.96336111	-0.5732
2008	361	2.78	-4.44	0.79	0.36	145.5578947	139.0116712	32770	23.87004167	-0.4231
2008	362	9.44	0	6.85	0.01	266.8421053	96.89741054	32794	23.76854167	-0.283
2008	363	12.22	0	8.86	0	369.1719298	108.1688336	32822	23.65077778	-0.0806
2008	364	6.67	-1.11	4.53	0	196.8912281	196.2179661	32854	23.51743056	-0.0623
2008	365	3.89	-1.11	2.51	0.08	118.4	199.0269916	32889	23.29597222	-0.1436
2009	1	1.67	-9.44	-1.39	0	264.1864349	117.7839211	32928	22.95831944	-0.3377
2009	2	-1.67	-9.44	-3.81	0	252.0662643	210.7471034	32971	22.87459722	-0.2814
2009	3	5.56	-5.56	2.5	0	338.4527851	117.4704418	33017	22.82494444	-0.5658
2009	4	1.11	-7.78	-1.33	0	169.1340428	190.5573328	33066	22.73361111	-0.6947
2009	5	3.89	-7.22	0.83	0.01	266.6382496	99.59553251	33119	22.63436111	-0.3986
2009	6	3.89	-3.33	1.9	0.44	227.4430348	142.3082539	33175	22.61009722	-0.4812
2009	7	0	-3.33	-0.92	1.83	50.3711006	27.009454	33234	22.635125	-0.3746
2009	8	2.22	-3.33	0.69	0	165.2672999	27.2931244	33296	22.60545833	-0.5169
2009	9	-2.22	-5.56	-3.14	0	139.4944835	109.0540823	33362	22.28498611	-0.8041
2009	10	-2.78	-5.56	-3.54	0.955	49.44759858	161.3961129	33431	22.16441667	-0.7085
2009	11	-0.56	-5.56	-1.93	0.095	108.3172789	40.20753526	33503	22.16904167	-0.5357
2009	12	-3.33	-6.11	-4.1	0	119.1433274	94.88216093	33579	22.21756944	-0.6405
2009	13	-0.56	-6.67	-2.24	0	110.799546	143.2215666	33657	22.27730556	-0.9985
2009	14	0.56	-12.78	-3.11	0.085	98.79150683	72.0067538	33738	22.26956944	-1.6811
2009	15	-7.78	-13.33	-9.31	0.165	98.60923509	146.7667303	33822	22.34165278	-1.2391
2009	16	-8.89	-17.22	-11.18	0	94.76454865	152.0798711	33909	22.80881944	-1.9055
2009	17	-13.33	-18.89	-14.86	0	68.80729022	209.3619241	33999	22.86666667	-2.2831
2009	18	-6.67	-19.44	-10.18	0.23	44.73166455	164.6693075	34092	22.95034722	-1.3128
2009	19	-3.33	-7.78	-4.56	0.04	102.9768209	89.69873446	34187	22.91422378	-0.9627
2009	20	-4.44	-12.22	-6.58	0	118.3555004	152.2567182	34285	22.51866667	-1.006
2009	21	-3.89	-12.78	-6.33	0	155.8506765	118.7069004	34386	22.34101389	-1.1457
2009	22	-4.44	-12.78	-6.74	0	150.5775132	198.463805	34489	22.74522222	-0.9769
2009	23	4.44	-5.56	1.69	0	233.9671771	237.6530777	34595	23.40475	-0.8184
2009	24	10.56	-2.78	6.89	0.00445	438.592215	222.0717774	34703	24.16123611	-0.8847
2009	25	-1.11	-12.78	-4.32	0.018333333	108.7026327	149.9121709	34814	25.50254167	-2.6265
2009	26	-7.22	-12.78	-8.75	0.000683333	107.2715216	105.0983976	34926	26.16473611	-2.2593
2009	27	-2.78	-10.56	-4.92	0.009583333	153.6160651	199.2538302	35042	26.295125	-1.7102
2009	28	-2.78	-6.67	-3.85	1.365966667	67.40931715	106.9653973	35159	26.20680556	-1.2385
2009	29	1.67	-8.33	-1.08	0.008666667	211.3752309	44.61334103	35278	25.93243056	-0.9264
2009	30	-0.56	-8.33	-2.69	0.087966667	154.5088648	218.0938672	35400	25.31725	-0.8715
2009	31	0	-11.11	-3.06	0.001216667	203.5899768	154.3309866	35523	24.93195833	-1.0617
2009	32	-1.11	-11.67	-4.01	0	164.3049002	257.6372332	35649	24.7725	-0.805
2009	33	9.44	-1.11	6.54	0.060466667	152.2796808	264.5284585	35776	24.90243056	-0.5561
2009	34	3.89	-4.44	1.6	0.004133333	147.6905964	55.85908011	35905	24.96494444	-0.6406
2009	35	1.67	-8.89	-1.24	0.09065	176.1774139	203.0904356	36036	24.60370833	-0.918
2009	36	-3.89	-16.11	-7.25	0.001	147.1429927	174.7323571	36169	24.469375	-1.843
2009	37	-7.22	-15.56	-9.51	0	139.7014676	291.2513	36303	24.41948611	-2.1086
2009	38	3.33	-8.33	0.12	0	237.8874798	287.3625154	36440	24.14929167	-1.0417
2009	39	12.78	-2.78	8.5	0.000316667	419.5200398	175.328336	36577	23.93713889	-0.2736
2009	40	10.56	-2.22	7.04	0	386.0580639	174.901092	36716	23.90493056	-0.3755
2009	41	7.22	-2.22	4.62	0.157616667	200.2813618	276.3981999	36857	24.79354167	-0.2648
2009	42	10	2.78	8.01	0.013283333	279.2561642	69.27297786	36999	25.62915278	0.126
2009	43	16.67	5	13.46	0.499733333	600.4362025	211.1561917	37143	25.515625	-0.2124
2009	44	6.11	1.11	4.74	0.0026	318.3311801	70.56498355	37287	25.28520833	-0.2927
2009	45	2.22	-0.56	1.46	0.107133333	167.2721316	59.22706081	37433	24.85088889	-0.2749
2009	46	0.56	-5	-0.97	0.005033333	227.6195056	100.2448301	37581	24.55572222	-0.1511
2009	47	2.22	-5.56	0.08	1.67E-05	272.1943102	287.0865286	37729	24.343375	-0.3583
2009	48	0.56	-7.78	-1.74	0	236.7528368	187.9874999	37879	24.63025	-0.2597
2009	49	3.33	-7.78	0.28	0.480608333	161.2265878	316.3581426	38029	25.91747222	-0.3909
2009	50	4.44	-1.67	2.76	0.280633333	194.6061353	31.7146908	38181	26.35892754	-0.4873
2009	51	2.22	-8.89	-0.83	0.008408333	251.1921475	157.2931786	38334	26.1915	-0.7876
2009	52	-3.89	-8.89	-5.26	0	223.1231013	186.5666132	38487	25.56883333	-0.7475
2009	53	3.33	-7.22	0.43	0.093208333	260.7307378	326.4448084	38642	25.34629167	-0.4707
2009	54	0	-6.67	-1.83	0.049475	229.8927661	169.0288683	38798	25.15543056	-0.9092
2009	55	-3.89	-11.11	-5.87	0	188.3726894	175.1300249	38954	24.98768056	-1.1806
2009	56	-0.56	-11.11	-3.46	0	249.314548	358.2607723	39111	24.87025	-0.5714
2009	57	8.33	-7.22	4.06	0.015366667	428.006074	347.0830889	39269	24.80716667	0.1287
2009	58	12.78	2.78	10.03	0.744733333	279.7922266	167.3030743	39428	24.94691667	0.381
2009	59	12.78	-3.89	8.19	0.000133333	487.0341169	72.43357801	39587	25.60075	0.3111
2009	60	1.67	-4.44	-0.01	0	345.0601914	300.8804759	39747	25.33595833	0.2469
2009	61	3.89	-8.33	0.53	3.33E-05	354.7241505	244.7099724	39907	25.15443056	-0.2692
2009	62	-5.56	-13.89	-7.85	0	201.4583111	288.8472708	40068	24.96319444	-0.3495
2009	63	-2.22	-13.89	-5.43	0	249.8397379	388.2299828	40230	24.80391667	-0.6403
2009	64	2.78	-11.11	-1.04	0	353.4684994	392.375914	40392	24.67997222	0.1193
2009	65	11.67	-7.22	6.47	0	543.6752737	376.8689778	40555	24.57881944	2.3603
2009	66	20	8.33	16.79	0.004733333	744.2677937	254.1203772	40718	24.48568056	5.4916
2009	67	21.67	12.78	19.22	0.840566667	457.0879083	150.0364866	40882	24.39422222	7.3676
2009	68	15	6.11	12.56	0.508116667	356.2603444	38.43215167	41046	24.841125	5.4495
2009	69	10	1.67	7.71	0.06885	242.4558126	102.0025673	41210	25.49616667	3.5625
2009	70	7.22	2.22	5.85	0.024183333	404.9297895	67.45322968	41375	25.62530556	6.3483
2009	71	17.22	-2.78	11.72	3.33E-05	795.2153365	338.464063	41540	25.69306944	2.589
2009	72	2.78	-5	0.64	0	319.2155879	277.4693084	41705	25.56934722	3.2976
2009	73	6.67	-5	3.46	0	326.2932209	407.1595356	41870	25.20594444	4.097
2009	74	11.11	-1.11	7.75	0	333.8742675	341.9498436	42036	25.33745833	6.6932
2009	75	13.89	2.22	10.68	0.651216667	274.9745386	343.3775205	42202	25.46945833	5.9036
2009	76	11.67	3.33	9.38	0.127316667	267.5401823	110.1485955	42368	25.98016667	6.8893
2009	77	12.78	2.78	10.03	0	448.9978894	225.3158424	42534	26.84005556	8.1266
2009	78	22.78	3.89	17.58	0.003683333	1053.709672	383.0748096	42701	26.87356944	8.2404
2009	79	12.78	-2.22	8.65	0.004033333	629.3741589	283.9427718	42867	26.94641958	4.2793
2009	80	6.67	-6.11	3.15	0	449.3988361	299.1737669	43033	26.367	3.1362
2009	81	8.33	-6.11	4.36	0	434.1245019	362.4458408	43200	25.49895833	4.1386
2009	82	12.22	-3.33	7.94	0	772.7372812	316.0849464	43366	25.35193056	4.3011
2009	83	7.78	-6.67	3.81	0	602.8603107	473.314426	43533	25.182875	3.7825
2009	84	8.89	-6.11	4.76	0.000116667	618.5631465	458.3236046	43699	25.01748611	3.5422
2009	85	10	2.22	7.86	1.215633333	109.8442733	232.7439357	43865	24.90226389	4.3539
2009	86	5.56	1.67	4.49	0.001033333	272.2866165	40.87826508	44032	24.80783333	6.895
2009	87	14.44	2.78	11.24	0.335508333	168.8633258	361.9112663	44198	24.73494444	7.538
2009	88	12.22	7.22	10.85	0.7059	227.6366565	81.10267445	44363	24.64093056	7.7345
2009	89	10.56	1.11	7.96	0.068941667	343.3438813	131.2323642	44529	24.60059722	4.8817
2009	90	3.89	0	2.82	0	353.6276041	145.061374	44695	24.52361111	7.5327
2009	91	16.11	0.56	11.83	0.710925	256.8713881	460.6330701	44860	24.56263889	6.5068
2009	92	8.89	6.11	8.13	0.019375	314.3319836	96.56933581	45025	25.23247222	10.9986
2009	93	18.89	6.67	15.53	1.815816667	278.580352	420.7809233	45190	25.16151389	10.6451
2009	94	15.56	3.33	12.19	0.02295	640.2511348	72.7074765	45354	25.73193056	8.2219
2009	95	8.89	2.22	7.06	0	645.7900798	342.4969221	45518	25.726625	9.1786
2009	96	18.89	2.78	14.46	0.451816667	490.0568742	481.6485516	45681	25.86747222	9.1189
2009	97	12.22	-1.11	8.56	0.01775	442.7006644	162.0504484	45845	27.38286111	4.4655
2009	98	3.89	-0.56	2.67	0.001783333	422.2031368	223.9022542	46007	27.30484722	5.5649
2009	99	10	-0.56	7.1	0	604.6907822	325.1804043	46169	26.91927778	6.466
2009	100	15	1.11	11.18	0.184116667	399.0540823	501.5553613	46331	26.27658333	6.189
2009	101	9.44	3.89	7.92	0.205133333	503.8963151	95.2822577	46492	25.25734722	8.8183
2009	102	12.78	-1.11	8.96	0	778.1438675	412.4441091	46653	24.74291667	6.6765
2009	103	10	-2.78	6.49	0.000966667	547.4747602	531.8183345	46813	24.545375	5.8951
2009	104	12.78	-1.11	8.96	1.050633333	119.0061886	343.4293407	46972	25.00376389	6.1245
2009	105	7.78	5	7.01	1.37	116.3689887	43.23687529	47131	25.41277778	6.7092
2009	106	7.78	-0.56	5.49	0.000516667	416.5154791	119.5568658	47289	25.40826389	8.8133
2009	107	18.33	1.11	13.6	0	1103.46758	528.2772385	47446	25.78516667	9.9716
2009	108	21.11	4.44	16.53	0	1361.317267	534.5224453	47602	25.14566667	11.3587
2009	109	23.33	10.56	19.82	0.003033333	1347.874024	509.303487	47758	24.83104167	12.2763
2009	110	20	5	15.88	0.924775	348.6805386	281.2502154	47912	24.58131944	8.3405
2009	111	7.78	4.44	6.86	0.536141667	175.0739881	69.94715386	48066	24.36823611	10.1329
2009	112	17.22	5	13.86	0.023133333	482.297071	289.8032523	48219	24.13681944	7.7662
2009	113	11.11	2.22	8.67	0.143816667	464.8843314	312.938904	48370	23.90815278	8.3261
2009	114	12.78	3.33	10.18	0.030466667	606.7031419	374.9935511	48521	23.69925	10.97
2009	115	23.89	5	18.69	0	1212.598359	412.9514587	48671	23.51225	15.0422
2009	116	30	13.89	25.57	0	2066.634528	412.2052113	48819	23.34695833	17.1198
2009	117	31.11	15	26.68	0	2221.143246	520.3014803	48966	23.39104167	18.4415
2009	118	32.22	16.67	27.94	0	1939.849546	516.3245403	49112	23.44823611	17.9425
2009	119	29.44	6.67	23.18	0.0001	1225.275917	472.9080673	49257	24.66690278	14.7996
2009	120	19.44	7.22	16.08	0.090716667	512.5185758	385.5964397	49401	24.381125	12.3706
2009	121	17.22	11.11	15.54	0.344066667	329.7594936	113.6076378	49543	24.08947222	14.6756
2009	122	21.67	11.11	18.76	0.6231	726.5510594	224.4510471	49683	23.79601389	14.3442
2009	123	17.78	8.33	15.18	0.264616667	280.056739	312.9721709	49823	23.61197222	11.252
2009	124	14.44	8.33	12.76	1.5003	146.8725817	170.8922208	49960	23.94077778	11.4508
2009	125	11.11	9.44	10.65	0.673058333	196.1258044	75.77995899	50096	24.57454167	11.5142
2009	126	13.33	9.44	12.26	0.68195	211.5938044	123.5027991	50231	24.78765278	13.5535
2009	127	18.89	11.11	16.75	0.897275	522.6763283	222.4344709	50363	24.85258741	14.984
2009	128	21.11	11.11	18.36	0.219233333	366.700773	316.2313518	50495	24.54002778	14.0209
2009	129	22.22	12.78	19.62	0.023866667	757.6694342	255.8083403	50624	24.27259722	15.8444
2009	130	24.44	8.89	20.17	0.001066667	1085.621956	298.5231191	50751	25.10338889	12.8687
2009	131	15.56	6.11	12.96	0.02545	368.7424103	254.5669637	50877	24.93247222	10.6247
2009	132	15.56	3.89	12.35	0.008583333	620.5911312	212.6501729	51000	24.85559722	10.97
2009	133	16.67	4.44	13.31	0	702.4807696	470.8080678	51122	25.50570833	12.0119
2009	134	21.67	7.22	17.69	1.647083333	282.4456908	467.1910714	51241	25.23295833	13.6084
2009	135	20	11.11	17.56	0.424166667	606.2392927	237.5707224	51358	24.78220833	16.3585
2009	136	24.44	11.11	20.78	1.875883333	472.1160068	493.4992478	51473	24.35973611	17.199
2009	137	26.11	7.78	21.07	0.455283333	1279.800578	321.3816688	51586	24.03536111	13.9354
2009	138	15	3.89	11.94	0	799.4811004	488.3374571	51697	24.20727778	11.1382
2009	139	15.56	2.78	12.04	0	674.835982	594.150089	51805	25.16579167	11.7757
2009	140	22.22	5.56	17.64	0	1029.752062	588.8071142	51910	24.965625	14.1433
2009	141	28.33	11.11	23.6	0	1433.767087	573.8567931	52014	27.45805556	15.5653
2009	142	29.44	13.89	25.17	0.00005	1243.95323	587.5524898	52114	28.18690278	16.2692
2009	143	28.89	15.56	25.22	0.097833333	798.0652995	443.0635772	52212	26.92901389	17.4314
2009	144	27.78	15.56	24.42	0.219808333	616.3887921	347.9157219	52308	25.9555	17.7922
2009	145	29.44	16.11	25.78	0.215925	1196.570604	381.1014377	52400	24.56209722	18.176
2009	146	26.11	12.22	22.29	0.580183333	513.7200429	524.8698609	52490	24.03668571	13.2502
2009	147	12.78	9.44	11.86	0.1383	127.795897	91.28455944	52577	23.63124894	12.8777
2009	148	16.67	10.56	14.99	0.526358333	156.1560378	161.4572072	52662	23.37233507	15.7635
2009	149	22.78	16.67	21.1	1.356208333	345.4430767	228.6196957	52743	23.17150588	16.4485
2009	150	20	12.78	18.01	8.33E-05	761.5117931	183.0130991	52821	23.00741648	15.6578
2009	151	21.67	10	18.46	0	917.7313413	537.0522001	52896	22.86868087	14.4658
2009	152	21.11	5	16.68	0.002316667	748.3944377	544.3386186	52969	22.74850261	12.8103
2009	153	22.78	8.33	18.81	0.405066667	391.0654887	472.9325538	53038	22.64249788	16.033
2009	154	23.89	15.56	21.6	1.566466667	162.8550763	321.1654294	53103	22.46247059	14.751
2009	155	16.67	11.11	15.14	0.04065	320.1857322	54.35995985	53166	22.32340278	14.1408
2009	156	17.78	11.11	15.94	0.610183333	142.9780977	216.3665291	53225	21.96536111	13.6649
2009	157	14.44	12.22	13.83	0.05565	457.0342452	73.50266476	53281	21.58143056	16.7757
2009	158	24.44	12.78	21.24	0	781.4197036	552.1372475	53334	21.16548611	17.3415
2009	159	27.22	15.56	24.01	1.172641667	665.3370689	525.257936	53383	20.77768056	18.2646
2009	160	27.78	18.33	25.18	0.816958333	607.6812536	388.3894149	53429	20.42401389	19.3391
2009	161	28.33	16.67	25.12	0.053866667	534.0691892	370.5210232	53471	20.10056944	18.2822
2009	162	25	17.78	23.01	0.770391667	246.4732931	319.0245179	53510	19.92658333	17.6965
2009	163	22.22	17.78	21	0.602158333	384.3381698	156.7076645	53546	20.24559722	18.3706
2009	164	23.89	16.11	21.75	0	696.7668218	265.0783349	53577	20.03975	18.5667
2009	165	25	11.11	21.18	0.000166667	901.0650168	363.6109516	53606	19.76	17.5117
2009	166	25	12.78	21.64	0	948.8202684	552.0734396	53630	19.45181944	17.1576
2009	167	26.67	15	23.46	0	568.0934847	544.8209571	53651	19.12358333	16.2765
2009	168	22.22	15.56	20.39	1.91045	280.2558962	186.0236381	53669	18.885625	15.3623
2009	169	16.67	13.89	15.9	0.416083333	268.2314446	133.9219314	53682	18.96141667	16.5405
2009	170	21.67	15.56	19.99	0	551.8582417	212.7750788	53693	18.90193056	17.8383
2009	171	24.44	16.11	22.15	3.7643	322.3490787	339.4804448	53699	18.7945	18.6518
2009	172	24.44	16.67	22.31	0.360316667	646.0100973	145.645519	53702	18.65244444	18.3099
2009	173	23.89	15.56	21.6	1.67E-05	828.393316	273.6403508	53701	18.53281944	19.3392
2009	174	27.22	15.56	24.01	0	1047.297317	396.9929555	53696	18.58273611	19.4721
2009	175	27.22	14.44	23.71	0.0001	1122.611537	548.1274578	53688	18.86018056	19.6193
2009	176	29.44	16.11	25.78	0	996.8158224	577.8142086	53676	18.95408333	19.5349
2009	177	30.56	18.89	27.35	0.1578	778.0274218	500.331835	53661	19.04883333	19.7793064
2009	178	26.67	15.56	23.61	0	921.1815165	403.1791112	53641	19.08383333	19.2781433
2009	179	26.67	15.56	23.61	0.036816667	359.5379371	495.5989948	53619	18.97394521	17.9769708
2009	180	21.11	13.89	19.12	0.392533333	571.5133907	115.4576734	53592	18.91579191	18.3406217
2009	181	26.11	15.56	23.21	1.373766667	317.4763943	486.2790837	53562	19.05755556	18.2971552
2009	182	22.78	13.89	20.33	0.00705	384.479247	306.0393339	53529	19.70548611	18.0224695
2009	183	24.44	15	21.85	1.606516667	292.929466	333.3081932	53491	20.72518056	18.1056768
2009	184	22.22	15.56	20.39	0.00525	508.6422429	240.9398392	53451	20.48156944	18.3763
2009	185	22.22	15	20.24	0	843.0129499	310.4405805	53407	20.28152778	18.2574
2009	186	23.33	11.11	19.97	0	777.5442578	468.572614	53359	19.92077778	17.4492
2009	187	23.89	12.22	20.68	0	853.5576772	542.7515532	53308	19.637375	17.3375
2009	188	27.22	13.89	23.56	0	1176.476636	517.816937	53254	19.35341667	17.8369
2009	189	26.11	11.67	22.14	0	808.670287	508.673517	53196	19.07976389	16.4624
2009	190	22.78	12.78	20.03	0	719.4379253	403.07244	53135	18.82525	17.0059
2009	191	26.11	13.89	22.75	0	704.8211986	445.7539703	53071	18.64818056	17.6112
2009	192	26.11	16.67	23.51	1.671016667	447.6598914	408.6950228	53004	18.47959722	18.2988
2009	193	25.56	17.22	23.26	0.033116667	901.6685182	257.5391635	52933	18.29720833	18.9716
2009	194	25	14.44	22.1	0.000566667	1029.287788	543.2032639	52860	18.23	17.4754
2009	195	24.44	11.11	20.78	0.017533333	973.6450359	541.9840296	52783	18.30306944	16.3898
2009	196	25	11.11	21.18	0.000616667	832.3341124	578.5249453	52703	18.34758333	16.9075
2009	197	27.78	13.33	23.81	0.390866667	986.6266601	529.9604298	52620	18.29091667	19.8492
2009	198	30	18.33	26.79	0.475958333	450.5324709	461.9382378	52535	18.14072222	17.8185
2009	199	22.78	13.89	20.33	0.791058333	540.2532892	154.6459896	52446	17.92476389	17.1419
2009	200	20.56	13.33	18.57	0.0065	532.8747459	286.0924829	52355	17.72152778	17.0642
2009	201	23.89	14.44	21.29	0	675.0930108	433.1011256	52261	17.66581944	17.5578
2009	202	26.11	15.56	23.21	0.097	693.6484257	373.778047	52164	17.58731944	18.918
2009	203	25	15.56	22.4	0.500133333	372.1661505	381.0734957	52065	17.49243056	18.3387
2009	204	25	16.67	22.71	2.318016667	320.5875517	249.3325907	51963	17.46219444	19.5742
2009	205	25.56	17.22	23.26	0.1648	532.685326	267.4121862	51858	17.33647222	19.199
2009	206	26.11	15	23.06	0.383116667	481.6771529	408.7590205	51751	17.09370833	18.5279
2009	207	27.78	16.67	24.72	0.291816667	476.1631711	375.434424	51642	16.84784722	19.4789
2009	208	26.11	18.33	23.97	0	732.9878967	317.0213715	51530	16.55190278	19.7424
2009	209	27.78	17.22	24.88	0	788.7211924	447.9530245	51417	16.36944444	19.6997
2009	210	28.89	18.33	25.99	1.169833333	256.614042	457.9165597	51300	16.31891667	18.7804
2009	211	22.78	18.33	21.56	0.069583333	508.5388685	159.4558694	51182	16.75194444	20.5277
2009	212	27.78	19.44	25.49	1.46685	246.626154	355.1303517	51062	17.29829167	19.9555
2009	213	22.22	16.67	20.69	0.0032	528.009103	118.8434956	50939	17.41575	20.6956
2009	214	27.22	17.22	24.47	0.120166667	503.28073	490.6317865	50815	17.33236111	20.2717
2009	215	25.56	14.44	22.5	0	667.5599216	264.1185281	50688	17.12845833	19.2932
2009	216	25.56	15.56	22.81	0	624.4665166	491.4525672	50560	16.86631944	19.575
2009	217	28.33	16.67	25.12	0	756.4169314	477.1215306	50430	16.58588889	19.9204
2009	218	26.11	12.78	22.44	0	846.0942866	310.2285444	50298	16.31605556	17.6876
2009	219	25	12.22	21.49	0	668.5008427	413.4473405	50164	16.07416667	17.0265
2009	220	24.44	13.89	21.54	0.027166667	634.6702583	405.095866	50029	15.94797222	18.1746
2009	221	26.11	16.11	23.36	0.42765	442.6475989	390.6730871	49892	15.90973611	20.4977
2009	222	29.44	20	26.85	0.216141667	806.3058002	235.7774419	49754	15.826375	22.0804
2009	223	32.22	20	28.86	0.231791667	614.5217081	414.3795412	49614	15.66756944	21.1637
2009	224	27.78	18.33	25.18	1.749625	449.6914643	261.9413273	49472	15.59231944	20.1813
2009	225	26.67	16.67	23.92	0.089208333	530.6079843	264.6662452	49330	16.17779167	20.0444
2009	226	26.67	17.78	24.22	0	626.9497425	444.3357793	49186	16.51394444	20.2901
2009	227	28.89	17.78	25.83	0	794.0750932	449.9190354	49040	16.51822222	21.0313
2009	228	30.56	19.44	27.5	0	901.5865104	490.8757116	48894	16.43529167	21.3094
2009	229	31.11	20	28.06	0	1105.731535	484.9370463	48746	16.28244444	21.404
2009	230	32.78	20.56	29.42	0.431825	611.56991	493.8753141	48597	16.17006944	21.214
2009	231	30.56	20.56	27.81	0.015741667	676.9374703	333.2205532	48446	16.01626389	21.9533
2009	232	29.44	20	26.85	0	749.152435	315.7192768	48295	15.73793056	22.0321
2009	233	29.44	20.56	27	0.485283333	492.655685	339.3801851	48143	15.47893056	22.1038
2009	234	26.67	18.89	24.53	0.001233333	559.8637232	269.3024513	47990	15.31797222	21.2629
2009	235	26.67	17.78	24.22	0	846.3101499	282.9709568	47836	15.25783333	20.0878
2009	236	25.56	14.44	22.5	0	576.5525923	404.7606096	47681	15.22544444	18.6185
2009	237	25.56	14.44	22.5	0	667.7699726	358.5348614	47525	15.22093056	18.7907
2009	238	27.22	16.11	24.17	0	897.3468059	473.9793893	47368	15.14070833	19.4029
2009	239	28.89	17.22	25.68	0.02615	534.4074612	430.3020447	47210	15.03197222	19.6042
2009	240	19.44	16.67	18.68	0.91275	219.3969411	119.7702836	47052	15.16166667	18.5648
2009	241	20	16.67	19.08	2.108033333	330.555097	67.42103904	46893	15.59897222	19.6999
2009	242	26.11	14.44	22.9	0	761.1388359	297.5141641	46734	16.148875	17.1136
2009	243	22.22	11.11	19.17	0	540.8998917	443.2871712	46573	16.39395833	15.0406
2009	244	18.89	7.78	15.83	3.33E-05	474.5543285	366.7965666	46413	16.53055556	13.6658
2009	245	20.56	8.33	17.19	0	529.277754	497.3802934	46251	16.64586111	14.209
2009	246	23.33	10	19.67	0	586.9153305	478.3005833	46089	17.08184722	14.7093
2009	247	23.89	10.56	20.22	0	627.404906	471.1285316	45927	17.22826389	15.687
2009	248	25	12.22	21.49	0	667.4029684	464.5289457	45764	17.27718056	16.3853
2009	249	25.56	12.78	22.04	0	723.5662468	434.5295076	45600	17.287875	16.3239
2009	250	25	13.89	21.94	0.009341667	385.7817956	413.9242112	45437	17.27765278	17.0359
2009	251	20	17.22	19.24	0.003408333	409.4359562	136.7144242	45272	17.25980556	17.6101
2009	252	22.22	16.11	20.54	0.000916667	474.4212481	190.2192963	45108	17.29027778	17.6448
2009	253	22.78	15	20.64	0.013333333	708.5729684	214.4355697	44943	17.68265278	16.5219
2009	254	20	12.78	18.01	2.071841667	218.3804631	399.4411714	44778	17.81240278	14.1509
2009	255	15	12.22	14.24	0.056508333	192.5441047	56.07896631	44613	17.84802778	15.7667
2009	256	19.44	13.89	17.92	0	587.8569736	96.57645424	44447	17.87545833	17.05
2009	257	24.44	15	21.85	0	598.2023368	428.9065913	44281	17.88655556	17.504
2009	258	23.89	13.89	21.14	0.00035	456.242422	295.107931	44115	18.12319444	16.8138
2009	259	24.44	11.67	20.93	0	743.9274831	265.5278074	43949	19.85373611	16.0453
2009	260	19.44	11.67	17.31	0.010241667	315.1932069	345.3297891	43783	20.38488889	15.2491
2009	261	16.11	13.89	15.5	0.014991667	481.6589997	70.88808372	43617	21.33940278	16.3589
2009	262	23.33	10	19.67	0	668.9773209	382.3529107	43450	21.39281119	14.4811
2009	263	20	5.56	16.03	0	394.0091204	454.4088614	43284	21.54133333	13.52
2009	264	23.33	6.11	18.6	0	470.319669	370.2596826	43117	21.64022222	15.6435
2009	265	23.89	14.44	21.29	0.077166667	413.0755619	376.1869084	42951	21.66463889	17.0867
2009	266	23.33	18.33	21.96	0.454383333	323.0048201	128.9266886	42784	21.80176389	18.4239
2009	267	26.11	17.78	23.82	0	550.8505766	253.4884322	42618	28.93836111	18.5473
2009	268	22.78	13.33	20.18	0	766.0699265	183.6096608	42452	29.19626389	16.4664
2009	269	20	12.22	17.86	2.91225	393.1857879	369.3953291	42286	26.56623611	13.7055
2009	270	14.44	11.67	13.68	1.75345	97.59836475	57.95416082	42120	25.96515278	14.301
2009	271	16.67	12.22	15.44	0.7834	392.4936873	125.2165572	41954	25.98152778	13.7458
2009	272	20	11.11	17.56	0.0036	614.0463142	224.5896252	41788	25.23822222	12.8085
2009	273	13.89	10.56	12.97	0.002233333	474.1497003	69.12659797	41623	24.88148611	12.6021
2009	274	13.33	6.67	11.5	0	425.1628331	196.6649487	41458	24.62211111	11.01
2009	275	12.78	3.89	10.33	0.634591667	132.6601074	209.7496126	41293	24.447375	10.1949
2009	276	15	5	12.25	0.372508333	279.36355	185.7657215	41129	24.31393056	12.9724
2009	277	18.89	7.78	15.83	0	395.4028318	311.9541183	40964	24.20629167	11.7071
2009	278	15.56	7.78	13.42	0	431.4231722	184.9101482	40801	24.10380556	11.386
2009	279	15.56	4.44	12.5	0	370.5361453	256.3720067	40637	24.00968056	10.9344
2009	280	17.78	5	14.26	0.267583333	564.702324	318.9102635	40474	23.951875	12.3715
2009	281	13.33	7.78	11.81	0	466.8655743	184.4953055	40312	23.87145833	12.081
2009	282	18.33	8.33	15.58	1.115225	171.0742548	292.9745469	40150	23.82920833	12.9405
2009	283	17.78	11.67	16.1	0.475775	390.5188521	83.52567183	39989	23.82745833	13.1385
2009	284	14.44	5	11.85	0	373.7990604	176.3109979	39828	23.79331944	9.9668
2009	285	12.78	3.89	10.33	0	340.3996733	283.0882599	39667	23.71481944	8.8611
2009	286	9.44	3.89	7.92	0.005983333	283.6007623	113.766587	39508	23.66390278	9.7713
2009	287	13.33	0	9.67	3.33E-05	252.7312396	129.7353382	39349	23.67195833	7.8071
2009	288	7.22	0.56	5.39	2.513708333	65.32204503	120.4538673	39191	23.68622222	6.746
2009	289	3.89	-0.56	2.67	1.276416667	39.74306619	34.55417139	39033	23.58288889	5.3499
2009	290	1.67	0	1.21	0.679866667	44.46893486	87.27844395	38876	23.55611111	5.8852
2009	291	3.89	0	2.82	0.185891667	193.5736985	72.25348668	38720	23.48833333	6.9103
2009	292	10	-1.11	6.94	0	279.1027575	212.0306911	38565	23.43272222	6.155
2009	293	12.78	0	9.26	0	396.3782907	332.3026942	38411	23.59397222	8.059
2009	294	19.44	6.67	15.93	3.33E-05	513.2498888	280.8493579	38258	24.41333333	9.2192
2009	295	21.11	7.78	17.44	0	743.1655047	229.1492937	38106	24.30095833	10.2717
2009	296	21.67	8.33	18	0.837983333	421.5513789	258.7245539	37955	24.23477778	11.1026
2009	297	17.22	11.11	15.54	7.42895	347.2655167	95.35171179	37804	24.17016667	12.0082
2009	298	18.33	6.67	15.12	0	724.291248	111.4015385	37655	24.62376389	10.184
2009	299	15	2.78	11.64	0	419.3229011	299.4743747	37507	24.63248611	8.9288
2009	300	15.56	3.33	12.19	0.064833333	201.9614038	278.0563233	37361	24.61	9.3505
2009	301	13.33	7.78	11.81	1.282408333	131.5099396	111.1328199	37215	25.03509722	11.1051
2009	302	15	11.11	13.93	4.17E-05	246.9586021	67.11884766	37071	24.79573611	11.7237
2009	303	13.33	10	12.42	0.013566667	246.492101	63.44659927	36928	24.60281944	11.4729
2009	304	14.44	11.11	13.53	0.110216667	391.4013184	47.42078899	36787	24.50386111	11.8161
2009	305	16.67	5.56	13.61	0	645.7503674	46.78749902	36647	24.41997222	10.0742
2009	306	11.67	-0.56	8.31	3.33E-05	308.9746219	239.6055199	36509	24.45676389	7.7601
2009	307	12.78	0	9.26	0.032983333	442.227101	273.2686173	36372	25.38454167	7.5806
2009	308	12.22	-1.11	8.56	0.001616667	384.6979668	219.7478771	36237	24.91545833	6.3305
2009	309	7.78	-1.11	5.33	0.077083333	213.3716827	154.4983285	36103	24.61583333	6.2639
2009	310	7.22	0.56	5.39	0	391.6988879	90.46316668	35971	24.53643056	5.3894
2009	311	7.78	-2.22	5.03	0	335.0895566	267.3352266	35841	24.40873611	4.982
2009	312	13.33	-2.22	9.06	0	394.3304765	241.1475428	35713	24.42369444	7.418
2009	313	21.11	5.56	16.83	0	457.0171514	249.7199957	35586	24.7785	8.1038
2009	314	19.44	5.56	15.62	0	543.8915295	149.9181358	35462	25.12593056	9.1793
2009	315	14.44	5.56	12	0.015083333	742.7692553	109.7116975	35339	25.18277778	8.4952
2009	316	10.56	2.22	8.26	0	635.896958	134.8511337	35219	24.84227778	7.5578
2009	317	10	2.78	8.01	6.67E-05	609.4263692	146.8190655	35100	24.89763889	8.7515
2009	318	15.56	5	12.65	0.003733333	362.9603322	212.6514405	34984	25.97006944	10.409
2009	319	14.44	4.44	11.69	1.67E-05	298.1035457	104.4569038	34870	26.73015278	10.1357
2009	320	19.44	5.56	15.62	0	734.7430277	216.2378915	34759	26.90318056	9.6363
2009	321	12.78	5.56	10.79	0	794.3924701	225.8700273	34649	26.53708911	8.6376
2009	322	8.89	2.78	7.21	0	365.799792	78.73009315	34542	24.6700658	7.3932
2009	323	10	4.44	8.47	1.212533333	110.5722992	134.0838774	34438	24.52866385	8.9281
2009	324	11.11	6.11	9.74	0.043433333	439.1936874	42.31040185	34336	24.42236198	8.6851
2009	325	10	5	8.62	0	315.3315028	148.6547844	34237	24.32094323	8.1961
2009	326	10.56	5	9.03	0	191.8939447	89.68510953	34140	24.23156535	6.8464
2009	327	8.33	3.89	7.11	0.046891667	215.7106532	62.16223732	34046	24.28321378	7.2601
2009	328	9.44	4.44	8.07	0.679641667	79.92162581	71.34272289	33954	24.22058875	8.4675
2009	329	9.44	6.67	8.68	0.029666667	100.914755	59.14503209	33866	24.54174813	8.6622
2009	330	10.56	2.22	8.26	0.4603	98.29357923	70.83683432	33780	26.81640792	7.6598
2009	331	10	2.22	7.86	0.246758333	323.7376413	107.7539531	33697	25.4909525	6.0682
2009	332	5.56	1.67	4.49	0.036091667	219.0044832	77.38743174	33618	25.03064493	4.8848
2009	333	5	0	3.62	0	273.8465278	74.80020122	33541	24.77277837	4.7954
2009	334	16.11	0.56	11.83	0.126091667	443.3355542	194.310647	33467	24.40433198	6.7758
2009	335	11.11	-0.56	7.9	0.000958333	346.3394737	48.50009772	33397	24.21764635	4.2318
2009	336	6.11	-2.22	3.82	0.656725	74.259888	91.28641542	33329	24.22184722	3.489
2009	337	12.78	-1.67	8.81	0.898241667	269.6985342	52.40639992	33265	24.04066667	6.5914
2009	338	11.67	2.78	9.22	0.00245	404.3970804	44.41521567	33204	23.94266667	4.8033
2009	339	5	-1.11	3.32	0.464875	103.075495	107.4124213	33146	23.84155556	2.842
2009	340	0.56	-3.89	-0.67	0.001691667	169.5391919	29.79502735	33092	23.75452778	2.4246
2009	341	0.56	-5.56	-1.12	0.002908333	114.5965167	216.0829409	33041	23.67201389	1.805
2009	342	1.11	-5.56	-0.72	0.000591667	191.6584817	67.68003732	32993	23.60104514	2.316
2009	343	3.33	-1.11	2.11	3.267383333	93.08141013	165.8702772	32949	23.56586806	1.5498
2009	344	6.11	-3.33	3.51	0.002883333	362.2057389	117.5828352	32909	23.53361111	1.2725
2009	345	-2.22	-10	-4.36	1.67E-05	241.5653984	126.5890776	32872	23.30675694	0.068
2009	346	-2.78	-9.44	-4.61	0	243.8525446	155.0305432	32838	23.42774306	0.0086
2009	347	2.22	-5.56	0.08	1.664683333	137.7923547	208.9835804	32808	23.36289931	0.1963
2009	348	5	-0.56	3.47	0.000416667	126.5436996	38.7676603	32782	23.29640625	0.7163
2009	349	7.78	2.78	6.4	0.1445	169.7839001	99.47656072	32759	23.23950694	1.0672
2009	350	7.78	-3.89	4.57	0.01185	351.5186021	40.05586938	32740	23.27990278	0.3146
2009	351	-1.11	-7.22	-2.79	0.001183333	194.6349855	177.3380101	32724	23.27556944	-0.1561
2009	352	-1.67	-6.67	-3.04	0	190.6060358	160.6953502	32712	24.45651389	0.4104082
2009	353	0	-6.67	-1.83	0.758841667	69.38089985	135.0456757	32704	25.66143056	0.5104376
2009	354	-4.44	-7.22	-5.21	0.020958333	141.3702265	46.98742122	32699	25.37326389	0.8025099
2009	355	0	-6.11	-1.68	0.001766667	163.3830332	189.6434157	32698	25.24716667	0.9718599
2009	356	0.56	-3.33	-0.51	0.00515	181.8306143	151.7477876	32701	24.8815	1.0765182
2009	357	1.11	-9.44	-1.79	0	198.3102232	86.86520324	32707	24.00818056	0.1653023
2009	358	-1.67	-9.44	-3.81	0	130.5850733	209.5530419	32717	23.85885069	0.0004683
2009	359	0	-5.56	-1.53	0.436566667	66.77951248	205.8953888	32731	25.04114583	0.2678155
2009	360	6.11	-1.67	3.97	2.204083333	54.83178188	32.60334034	32749	29.99435764	1.4773132
2009	361	6.67	-2.78	4.07	0.003083333	160.2968077	38.47169308	32770	29.47365385	2.2383721
2009	362	5	-2.78	2.86	0.011341667	256.0515326	149.0730158	32794	26.42177083	1.0292131
2009	363	-2.22	-7.78	-3.75	0.049575	202.1849359	99.8655133	32822	25.92565972	-0.3142969
2009	364	-4.44	-9.44	-5.82	0	146.7228171	172.7819892	32854	25.10114583	-0.5247425
2009	365	-1.67	-9.44	-3.81	0.426108333	66.96507975	132.8794291	32889	24.35661458	-0.4102619
2010	1	0	-3.89	-1.07	0.021008333	111.5198336	64.62965112	32928	24.01680556	-0.1469
2010	2	2.78	-7.78	-0.12	0.079366667	216.0043044	83.89914709	32971	23.81265625	-0.2076
2010	3	-6.67	-11.11	-7.89	0.004641667	118.5879497	136.0530977	33017	23.65310764	-0.2449
2010	4	-6.11	-10.56	-7.33	0.005375	120.014054	63.08939322	33066	23.52348958	-0.2328
2010	5	-3.89	-7.78	-4.96	0.004258333	132.4565973	81.82636023	33119	23.48123264	-0.2411
2010	6	-2.78	-7.78	-4.15	0.024658333	121.4258647	66.13137315	33175	23.44675347	-0.1695
2010	7	-1.11	-3.89	-1.87	0.000208333	165.2800878	50.85176214	33234	23.42326389	-0.141
2010	8	-1.67	-6.11	-2.89	0.136158333	125.2094245	64.82490004	33296	23.39015625	-0.1112
2010	9	-4.44	-8.89	-5.67	0.005166667	176.6695034	160.104984	33362	23.35638889	-0.1733
2010	10	-2.78	-13.33	-5.68	0	146.0890171	223.5777821	33431	23.33416667	-0.3161
2010	11	-4.44	-13.33	-6.89	0.016116667	127.458138	200.2162588	33503	23.33210069	-0.3323
2010	12	-2.22	-9.44	-4.21	0.00085	147.7534395	119.7136456	33579	23.33427083	-0.449
2010	13	-2.22	-6.67	-3.44	0	169.3752225	158.1541891	33657	23.36502778	-0.5036
2010	14	0	-7.78	-2.14	0	186.0429463	136.6825486	33738	23.380125	-0.6621
2010	15	7.22	-7.22	3.25	0	245.8080478	221.1544787	33822	23.37794444	-0.418
2010	16	5.56	2.22	4.64	0	241.7271257	46.55756102	33909	23.38291667	-0.2434
2010	17	9.44	-1.67	6.39	1.630925	67.46757635	131.0689434	33999	23.42281944	-0.3139
2010	18	3.89	-1.11	2.51	0.043708333	129.5067224	20.41841106	34092	23.434375	-0.1821
2010	19	6.11	2.22	5.04	0.014733333	179.3813113	158.5350385	34187	22.54969861	-0.1972
2010	20	4.44	-2.22	2.61	0	253.3243194	34.81580782	34285	23.50430556	-0.2442
2010	21	1.67	-7.22	-0.78	0	178.2963888	127.1953664	34386	23.7428125	-0.1958
2010	22	3.33	-6.67	0.58	0.065466667	242.7984897	230.1097087	34489	24.11986111	-0.0065
2010	23	2.78	-4.44	0.79	0	267.359495	81.22818786	34595	24.86203125	-0.0613
2010	24	5	-5	2.25	1.057183333	142.2054918	231.644269	34703	24.89586806	0.3798
2010	25	13.33	1.67	10.12	4.141916667	284.4608514	53.66720106	34814	25.18758681	4.1963
2010	26	11.67	-1.67	8	0.027716667	387.2378933	61.56674328	34926	25.37833333	1.8111
2010	27	0.56	-3.89	-0.67	0.003583333	234.7107231	138.7657818	35042	25.14270833	0.5804
2010	28	0.56	-3.89	-0.67	0.068183333	202.1964405	179.1696502	35159	24.89121528	-0.0723
2010	29	1.67	-13.33	-2.46	0	232.2756603	152.0287248	35278	24.84293403	-0.3826
2010	30	-7.22	-13.33	-8.9	0	153.0169118	218.9213467	35400	25.19569444	-0.7736
2010	31	-8.33	-13.89	-9.86	0	155.742414	111.9800368	35523	25.56137153	-1.1854
2010	32	-2.22	-13.33	-5.28	0	191.5766279	268.9028265	35649	25.75135417	-1.1458
2010	33	-1.11	-7.78	-2.94	0.048866667	149.8203472	205.7040404	35776	25.88600694	-0.9225
2010	34	1.67	-6.67	-0.62	0.1417	138.2543235	135.9703976	35905	25.88001736	-0.4867
2010	35	1.11	-4.44	-0.42	0	282.8756916	90.90026931	36036	25.80508681	-0.5956
2010	36	3.33	-4.44	1.19	0.297025	169.1546818	270.2146833	36169	25.75015625	-0.5596
2010	37	1.11	-5.56	-0.72	1.478475	179.3266347	55.25203616	36303	25.16557986	-0.3676
2010	38	-2.22	-15.56	-5.89	1.67E-05	140.014984	163.8990426	36440	23.16450909	-0.1444
2010	39	-2.22	-14.44	-5.58	1.67E-05	135.2405321	297.7521389	36577	24.76012431	-0.1733
2010	40	-1.67	-10.56	-4.11	0.08035	77.78833028	324.0880215	36716	24.9365625	-0.3458
2010	41	-2.22	-8.89	-4.06	0.891358333	61.59693208	106.9852538	36857	25.55041667	-0.4585
2010	42	-2.78	-9.44	-4.61	0.002291667	139.1377205	84.91956539	36999	27.01949653	-0.3906
2010	43	-1.11	-5.56	-2.33	3.33E-05	209.4065999	185.9308274	37143	31.52171875	-0.1286
2010	44	1.11	-7.78	-1.33	0.000233333	211.6857332	276.1203675	37287	27.46090278	-0.3463
2010	45	-3.33	-7.78	-4.56	0.014183333	137.1988201	157.9331334	37433	26.45805556	-0.3841
2010	46	-1.11	-9.44	-3.4	0.297308333	119.729269	103.0035113	37581	26.06119444	-0.2466
2010	47	0.56	-9.44	-2.19	0.084291667	165.7281876	181.5385516	37729	25.05171458	-0.269
2010	48	-1.11	-6.67	-2.64	0.011191667	161.4629869	204.776047	37879	25.04913889	-0.2576
2010	49	0.56	-5	-0.97	0.007591667	215.9663021	158.3694392	38029	24.60685764	-0.1332
2010	50	2.78	0	2.01	0.000183333	320.3520665	223.65301	38181	23.84003542	-0.0561
2010	51	4.44	-3.89	2.15	0	334.1611361	248.5963939	38334	23.71264514	-0.2072
2010	52	5	-3.89	2.56	0	409.1621616	192.1276233	38487	21.68296736	0.0268
2010	53	7.22	-3.33	4.32	0.125525	253.520992	339.6268791	38642	22.90065417	-0.0775
2010	54	4.44	-2.22	2.61	0.041291667	75.61425035	114.7729952	38798	24.66495833	-0.02
2010	55	3.33	-0.56	2.26	0	263.6064599	87.46854416	38954	25.70498611	0.1374
2010	56	2.78	-2.22	1.4	0.043733333	207.1322165	174.4144216	39111	25.23444444	0.0793
2010	57	0.56	-6.67	-1.43	0.315566667	120.0686571	186.7578671	39269	25.47327778	0.1148
2010	58	-2.22	-5.56	-3.14	0.068416667	119.7091058	111.8792916	39428	27.04125	0.258
2010	59	1.67	-3.89	0.14	0.043183333	187.3356345	229.1344777	39587	26.90794406	0.2985
2010	60	4.44	-1.11	2.92	0.008058333	233.5345711	213.2323169	39747	26.4651875	0.3626
2010	61	3.89	0	2.82	0.000425	243.5892452	139.9266604	39907	25.49321528	0.3582
2010	62	3.33	-0.56	2.26	0.048066667	207.0671659	154.6050496	40068	25.21815278	0.3646
2010	63	4.44	-2.78	2.46	0	394.4714723	98.72512914	40230	24.75843056	0.5271
2010	64	5	-2.78	2.86	0	426.5389723	374.5431223	40392	24.449625	0.518
2010	65	7.22	-5	3.86	0	483.723969	359.9318279	40555	24.32079861	0.4465
2010	66	9.44	-4.44	5.62	0	602.7230652	400.8106482	40718	24.34745833	2.1544
2010	67	10.56	-1.11	7.35	0	646.133554	396.6602359	40882	24.28802778	3.4755
2010	68	11.67	-0.56	8.31	0	594.5900011	397.626325	41046	24.17101389	4.3077
2010	69	15.56	1.11	11.58	0.000808333	679.1629471	392.1417933	41210	24.12263889	5.2759
2010	70	15.56	2.22	11.89	0.002408333	541.3981871	225.8781843	41375	24.06370833	8.1037
2010	71	18.89	3.89	14.76	0.818983333	178.3883097	365.4527327	41540	24.00941667	7.7226
2010	72	10	5	8.62	2.895616667	123.9284277	56.04439803	41705	23.95775	6.4321
2010	73	8.33	5	7.42	0.880633333	103.5372274	48.08480379	41870	23.89605556	6.32
2010	74	6.67	4.44	6.06	0.045566667	196.7819722	57.59561428	42036	23.82623611	5.9593
2010	75	6.67	4.44	6.06	1.67E-05	528.4148953	68.41783812	42202	23.78219444	8.2093
2010	76	15.56	-0.56	11.13	0	786.6147442	420.4568409	42368	23.74279167	7.5444
2010	77	17.78	0	12.89	0	884.5385146	433.5216939	42534	23.74394444	7.5849
2010	78	18.89	1.67	14.15	0	912.8883794	414.8657697	42701	23.75131944	8.5599
2010	79	20	6.11	16.18	0	1037.163672	413.2786587	42867	23.75009722	9.4757
2010	80	21.11	6.67	17.14	0	1167.51575	384.7011586	43033	23.73116667	11.2575
2010	81	22.78	7.78	18.65	0.3143	561.2853258	371.6387138	43200	23.68913889	11.7256
2010	82	18.33	7.78	15.43	0.246025	335.6198265	110.8049834	43366	23.65336111	8.6678
2010	83	8.33	2.78	6.81	0.000108333	570.5693522	43.5628003	43533	23.626	8.624
2010	84	15.56	2.78	12.04	0.200816667	517.5675446	450.3759227	43699	23.58529167	8.4234
2010	85	18.33	-1.11	12.99	1.101366667	733.2761299	208.3304843	43865	23.74930556	7.5787
2010	86	5	-5.56	2.1	0	443.5347271	419.7892095	44032	25.01404167	5.0277
2010	87	8.89	-5.56	4.92	2.144625	172.9833566	425.0160414	44198	25.36675	4.3442
2010	88	7.22	2.78	6	0.182625	186.4774684	135.7967601	44363	24.96466667	8.1383
2010	89	14.44	1.67	10.93	0.001841667	690.6611826	203.8193483	44529	24.71884722	6.7517
2010	90	10	1.67	7.71	0.000325	707.0691914	242.217446	44695	24.51696111	9.2516
2010	91	20	5	15.88	0	1108.768058	464.1942228	44860	24.43287292	10.9338
2010	92	26.67	6.67	21.17	0	1343.450028	463.1600028	45025	24.36423611	12.735
2010	93	28.33	10	23.29	0	1371.97667	421.5118188	45190	25.10580556	13.7256
2010	94	25.56	12.22	21.89	0	1784.308152	399.4601134	45354	25.18320979	12.9819
2010	95	21.11	7.22	17.29	0.001283333	1113.620212	426.425222	45518	24.91984722	12.8258
2010	96	26.67	8.33	21.63	0.1036	1268.346143	373.0370653	45681	24.68833333	15.424
2010	97	30	15.56	26.03	0	2277.840818	410.4366871	45845	24.48108333	15.1983
2010	98	29.44	12.22	24.71	0.188058333	1355.85076	349.5137502	46007	24.50379167	14.4666
2010	99	28.89	4.44	22.17	0.03315	1122.008326	344.8335824	46169	24.43018056	9.6889
2010	100	7.22	3.89	6.31	0.008375	562.5312808	165.9788062	46331	24.20797222	9.8416
2010	101	16.67	5.56	13.61	0	923.1641868	509.2572471	46492	24.411375	10.8486
2010	102	21.11	2.78	16.07	0	1318.838169	406.2776299	46653	26.44329167	11.4268
2010	103	18.89	4.44	14.92	0.001133333	845.7859205	481.6861808	46813	26.81265278	9.8628
2010	104	13.33	0	9.67	0	506.9135009	206.4616886	46972	26.32684722	10.1083
2010	105	18.33	2.78	14.06	0	837.0168582	491.4199595	47131	25.41788889	11.417
2010	106	25.56	7.78	20.67	0.412966667	874.0810633	432.8007795	47289	24.56205556	13.3287
2010	107	25.56	6.11	20.21	0.19925	825.0047669	297.7664776	47446	24.19981944	9.2532
2010	108	7.22	1.67	5.69	0.023616667	312.1296568	159.9413194	47602	24.50026389	7.7946
2010	109	9.44	1.67	7.31	0	517.9129054	188.1901309	47758	24.57443056	10.0051
2010	110	17.22	2.22	13.1	0	745.8473127	525.453393	47912	24.31551389	10.6893
2010	111	18.33	5	14.67	0.06255	608.2405161	456.37608	48066	23.97268056	11.0929
2010	112	20	4.44	15.72	0.056466667	751.3825465	374.2168396	48219	23.79706944	11.0935
2010	113	20	3.33	15.42	0	1116.214058	364.5641344	48370	25.06922222	11.7093
2010	114	19.44	3.89	15.17	0.070741667	757.695633	536.6927304	48521	24.94690278	9.941
2010	115	16.67	6.11	13.76	1.24475	125.4044897	246.8142632	48671	24.64791489	10.0481
2010	116	11.67	7.78	10.6	1.029241667	100.9510084	102.3971459	48819	24.24822222	10.4538
2010	117	12.22	5.56	10.39	0.198733333	599.0647484	102.7711449	48966	23.84652778	10.0462
2010	118	11.11	1.67	8.51	0	629.9726654	434.3406914	49112	23.51213889	8.6374
2010	119	12.78	2.78	10.03	0	801.9290074	382.379951	49257	23.253875	10.6896
2010	120	19.44	6.67	15.93	0	905.2578058	523.3277971	49401	22.87305556	13.3106
2010	121	27.78	10	22.89	0	1358.744456	499.0535359	49543	22.34695833	15.3942
2010	122	30.56	15.56	26.43	0.23245	594.7040993	433.9436315	49683	21.97533333	15.9491
2010	123	23.89	17.78	22.21	1.59415	641.6816102	140.6340799	49823	21.63776389	16.9914
2010	124	25	12.78	21.64	0.37015	871.2859522	260.3560711	49960	21.16761111	14.7685
2010	125	22.22	8.89	18.56	0	858.2302341	427.0925377	50096	20.71877778	14.6513
2010	126	26.67	11.11	22.39	0.27015	1221.65997	549.6738447	50231	20.40479167	15.1501
2010	127	21.11	6.11	16.99	0	743.1969638	540.1381478	50363	20.14288889	13.2117
2010	128	20.56	8.33	17.19	0.721991667	641.877035	433.5284893	50495	19.77744056	13.0685
2010	129	16.11	2.78	12.44	0.037625	632.339722	333.5623524	50624	19.41451389	9.1651
2010	130	8.33	2.22	6.65	0	538.1930523	215.3106388	50751	19.75061111	9.5648
2010	131	15	1.67	11.33	1.692641667	284.1894484	585.0898952	50877	20.70661111	7.6041
2010	132	9.44	3.33	7.76	1.605108333	95.03821326	82.58392364	51000	20.68443056	9.3701
2010	133	16.11	6.67	13.51	0.000833333	325.1761622	121.006974	51122	20.55356944	10.6535
2010	134	14.44	7.78	12.61	0.162083333	322.4562471	198.9315891	51241	20.42502778	13.7943
2010	135	27.22	11.11	22.79	0.132266667	1337.088583	325.220448	51358	20.24502778	14.2315
2010	136	21.11	10.56	18.21	0.002566667	900.2163436	506.6565472	51473	20.12066667	13.8256
2010	137	19.44	8.89	16.54	0.335833333	439.1544302	535.3777759	51586	20.05848611	12.2718
2010	138	15.56	8.33	13.57	0.513241667	179.6434306	135.6927554	51697	19.86688889	11.1106
2010	139	11.67	8.33	10.75	0.000191667	250.5843739	90.70082656	51805	19.52051389	11.9928
2010	140	17.78	10	15.64	0	659.6935837	249.1809684	51910	19.17756944	14.7512
2010	141	27.22	13.33	23.4	0	1003.374627	539.3759811	52014	18.81490278	15.4563
2010	142	27.78	15.56	24.42	0.303733333	781.8861175	403.5967399	52114	18.46083333	15.4683
2010	143	22.22	15	20.24	1.86885	266.716222	296.4166677	52212	18.17451389	16.1383
2010	144	22.22	13.89	19.93	0.00325	399.917488	252.2467833	52308	17.99347222	16.4397
2010	145	23.33	15	21.04	0.00005	644.1077855	283.3686477	52400	17.65923611	17.6264
2010	146	26.67	16.11	23.76	0	895.8815694	433.530418	52490	17.33179167	18.4771
2010	147	30	17.78	26.64	3.33E-05	1313.359499	540.6101573	52577	17.09591837	19.4693
2010	148	30.56	18.89	27.35	0.036416667	664.1662989	474.6726283	52662	18.54953476	18.3675
2010	149	26.11	17.78	23.82	0.000433333	684.3608582	286.254864	52743	18.29260144	18.8696
2010	150	26.11	13.33	22.6	0	956.8020012	350.6261409	52821	17.8974919	18.7675
2010	151	30	16.11	26.18	0.123666667	789.0704057	562.2273431	52896	17.47813315	18.8217
2010	152	30.56	17.78	27.04	0.306483333	503.5565497	395.9451704	52969	17.14368364	18.9531
2010	153	26.11	14.44	22.9	0	795.9966503	254.2003885	53038	16.87009129	18.8119
2010	154	28.33	16.11	24.97	0.000383333	918.3023758	523.707608	53103	16.6585883	19.751
2010	155	27.78	18.89	25.33	0.001325	670.8221589	374.3070196	53166	16.49525106	19.8593
2010	156	28.33	18.89	25.74	0.226383333	534.0558894	351.5391175	53225	16.37471221	19.7633
2010	157	27.78	18.89	25.33	0.106141667	791.4485343	292.7223187	53281	16.26669967	19.7058
2010	158	25.56	12.78	22.04	0.0003	1096.404058	340.8199598	53334	16.17180857	16.9774
2010	159	21.11	10	18.06	0	920.4562131	405.5457427	53383	16.07847001	16.1723
2010	160	22.22	11.67	19.32	3.927258333	255.7260075	581.7198418	53429	17.04793125	14.2394
2010	161	17.22	12.22	15.85	0.003291667	513.1863292	71.76896045	53471	20.6067264	17.2951
2010	162	25.56	12.78	22.04	0	685.5874432	481.443061	53510	19.72437754	17.7328
2010	163	25.56	13.89	22.35	0.019616667	570.430018	464.0453763	53546	19.50688617	19.811
2010	164	31.11	19.44	27.9	0.528716667	730.595471	469.785089	53577	19.56715189	21.1626
2010	165	28.33	16.67	25.12	0.008216667	625.1153143	296.2476061	53606	20.12674459	19.4591
2010	166	25	18.33	23.17	0.003133333	529.8318543	215.0584515	53630	16.23746154	18.7231
2010	167	23.33	17.78	21.81	0.119383333	485.7824635	253.0176706	53651	16.24268056	19.5467
2010	168	28.33	17.22	25.28	0	1173.624179	423.8829295	53669	16.18630556	19.1488
2010	169	23.33	11.67	20.12	0	676.6384707	428.79985	53682	15.9015	18.3788
2010	170	27.22	13.89	23.56	0	778.92801	569.1789086	53693	15.56426389	19.942
2010	171	31.11	17.78	27.44	0.041833333	1104.615981	500.961033	53699	15.36104167	20.9919
2010	172	28.89	16.11	25.38	0	1056.244733	416.8052581	53702	15.262	20.6642
2010	173	29.44	18.89	26.54	0.345633333	654.9866769	518.4321263	53701	15.22109722	20.091
2010	174	27.78	20.56	25.79	0.011108333	875.979023	286.496418	53696	14.98743056	21.7433
2010	175	31.67	20.56	28.61	0.035641667	1198.900125	488.0007798	53688	14.70886111	21.5096
2010	176	28.33	16.67	25.12	0	1026.932597	379.7385417	53676	14.48811111	20.6466
2010	177	27.22	17.22	24.47	0	950.2680028	488.7872224	53661	14.32360839	17.8834
2010	178	30	19.44	27.1	1.03355	899.8804639	445.4224531	53641	14.09380556	20.7120862
2010	179	31.67	21.11	28.76	0.1209	968.1793801	456.2352475	53619	13.889375	21.0437864
2010	180	26.67	19.44	24.68	0.017883333	1134.858296	226.8314239	53592	13.75858333	20.2590185
2010	181	25	8.89	20.57	0	1057.861714	487.1388315	53562	13.61706944	17.6797051
2010	182	22.22	10	18.86	0	983.406447	532.5844237	53529	13.433	16.7566347
2010	183	22.22	10	18.86	0	883.5957742	467.3586454	53491	13.27719444	16.7308935
2010	184	25	12.22	21.49	0	1060.72511	571.818853	53451	13.15165278	17.4834849
2010	185	30	13.33	25.42	0	1367.643937	569.5651394	53407	13.06165278	18.6048077
2010	186	32.78	18.33	28.81	0	1530.310727	564.4156636	53359	13.01658333	20.1253449
2010	187	34.44	20.56	30.62	0	1773.996979	470.7767028	53308	12.95969444	20.9812398
2010	188	33.89	21.11	30.38	0	1710.002764	487.8379391	53254	12.90417778	21.6466724
2010	189	33.89	21.11	30.38	0	1870.65705	492.7958002	53196	12.98044367	21.6130282
2010	190	34.44	22.22	31.08	2.081583333	1197.390857	476.1412161	53135	12.91867544	21.7728946
2010	191	32.78	18.33	28.81	1.728766667	1312.467067	388.5904768	53071	12.87755889	21.2976985
2010	192	27.78	14.44	24.11	0	1133.416809	521.0937097	53004	12.517825	20.1451024
2010	193	30	17.22	26.49	0.73635	682.3568476	563.5919599	52933	12.47688889	19.674761
2010	194	27.78	19.44	25.49	0.059183333	456.26382	341.2097111	52860	12.512	20.3459515
2010	195	25.56	19.44	23.88	1.139066667	524.0691574	204.3647622	52783	12.73629167	21.1148005
2010	196	28.33	18.33	25.58	0	848.8172994	309.2328195	52703	12.82720833	23.4133
2010	197	30.56	20	27.65	0.48655	485.2050045	494.2956137	52620	12.88808333	21.5018
2010	198	29.44	18.89	26.54	0.000166667	831.2836514	319.643083	52535	12.99002778	22.0035
2010	199	30	18.89	26.94	0.0028	1335.872475	488.0072997	52446	13.01106944	22.9665
2010	200	31.67	22.22	29.07	0.00055	1172.862153	507.5285358	52355	12.96993007	22.5159
2010	201	30.56	18.33	27.19	0.4471	546.8714812	453.5625032	52261	12.88913889	21.3849
2010	202	29.44	18.89	26.54	0.416091667	750.04759	320.4654111	52164	12.78380556	22.3794
2010	203	31.11	18.89	27.75	0.344708333	979.5500502	407.8623366	52065	12.677875	21.8271
2010	204	29.44	20	26.85	0.001166667	1130.484838	508.2322088	51963	15.48365278	23.2462
2010	205	33.89	22.22	30.68	0.002166667	1667.306151	430.9948806	51858	15.91062857	24.4813
2010	206	32.78	22.22	29.88	0.206216667	1058.341802	467.741549	51751	15.82507474	22.7482
2010	207	27.22	17.22	24.47	0	1104.311093	274.3047077	51642	15.64746027	20.7389
2010	208	27.78	16.11	24.57	0	989.1303315	550.7311478	51530	15.33238481	20.5007
2010	209	29.44	18.33	26.39	0	1062.703218	518.2526829	51417	15.00109352	21.5191
2010	210	30.56	20	27.65	0.312433333	1242.692256	486.4593205	51300	14.71812593	22.4193
2010	211	28.89	14.44	24.92	0	1191.594979	447.287588	51182	14.74344444	19.7465
2010	212	25.56	13.33	22.19	0	1046.683227	478.7621478	51062	14.61369444	19.4509
2010	213	26.67	15.56	23.61	0.0018	1014.72537	454.3179905	50939	14.33138889	20.721
2010	214	27.78	18.33	25.18	0	799.9971262	393.485686	50815	14.06277778	19.9892
2010	215	25.56	19.44	23.88	0.12175	482.7329491	309.7894825	50688	13.81936111	20.7792
2010	216	28.33	21.67	26.5	0.1883	643.2302471	242.3453598	50560	13.59243056	22.4099
2010	217	32.22	20.56	29.01	0.015533333	1043.26288	347.8488168	50430	13.39063889	22.2339
2010	218	28.33	18.33	25.58	0.19875	980.2004728	356.3944892	50298	13.17961111	20.7314
2010	219	25.56	15	22.65	0	950.096899	379.0130212	50164	12.98495833	19.9148993
2010	220	26.67	13.89	23.15	0	1108.238357	443.9513022	50029	12.82963889	19.6547777
2010	221	29.44	15	25.47	0	1455.063619	487.6448685	49892	12.68479167	20.4049982
2010	222	32.22	17.22	28.1	0	1413.836914	489.5823047	49754	12.52768056	23.7085
2010	223	32.22	20	28.86	0	1543.52506	371.7554735	49614	12.40822222	22.6408
2010	224	31.67	20	28.46	1.727325	407.2173777	483.4578088	49472	12.27735664	21.1901
2010	225	23.33	16.67	21.5	0.066308333	456.9723593	135.8187679	49330	12.24304167	19.5744
2010	226	21.67	17.22	20.44	0	729.8387913	162.9741193	49186	12.28175	19.4317
2010	227	24.44	19.44	23.07	0.923683333	306.2990266	199.2910551	49040	12.23555556	20.09
2010	228	27.22	19.44	25.08	0.000133333	894.7940435	209.6671032	48894	12.16504167	22.2324
2010	229	30	16.67	26.33	0	1297.342299	425.4148952	48746	12.18602778	19.8653
2010	230	27.78	17.78	25.03	0	866.6201794	480.35117	48597	13.12259722	19.2667
2010	231	25.56	14.44	22.5	0	779.0633917	255.2928618	48446	13.30256944	19.2801
2010	232	30	16.11	26.18	0	1085.611031	441.6377859	48295	13.32358333	20.0342
2010	233	29.44	16.67	25.93	0.0001	1022.523487	434.1890872	48143	13.29245833	20.1715
2010	234	28.33	17.22	25.28	5.16885	519.1962818	288.0664848	47990	13.16330556	21.2056
2010	235	26.11	17.22	23.67	0.204908333	405.6654593	238.2044182	47836	13.07261538	19.0014
2010	236	20.56	15	19.03	0.027841667	371.05711	145.1740499	47681	13.00573611	19.1812751
2010	237	20.56	15	19.03	0.044958333	441.8330614	160.9738931	47525	12.91180556	19.4245746
2010	238	25	16.67	22.71	0.000158333	877.2703059	260.163251	47368	12.78156643	19.3592055
2010	239	24.44	10.56	20.62	0	748.6583543	423.6650867	47210	12.63038889	18.1145959
2010	240	25	10.56	21.03	0	779.5339742	510.440037	47052	12.60693056	17.8808929
2010	241	27.22	12.22	23.1	0	791.4642562	496.9367981	46893	13.337125	20.7381
2010	242	30.56	14.44	26.13	0	1024.022671	481.552125	46734	13.47505556	19.2383
2010	243	30.56	16.67	26.74	0	1047.837738	472.2394216	46573	14.81288889	19.8881
2010	244	32.22	18.33	28.4	0	1262.067289	449.8816915	46413	14.62229246	20.2867
2010	245	32.22	18.33	28.4	0	1320.47912	455.042685	46251	14.30514773	20.5185
2010	246	32.78	18.33	28.81	0.00065	1314.304528	462.560441	46089	14.15147272	20.0503
2010	247	31.67	15	27.08	0	1431.1609	367.994835	45927	14.36067836	17.2869
2010	248	19.44	10.56	17	0	721.8798257	242.5455423	45764	14.51632454	14.8649
2010	249	20	7.78	16.64	0	679.7199161	380.4727747	45600	14.45262371	15.0149
2010	250	25.56	8.89	20.97	0	1107.261922	416.8670841	45437	14.40529273	17.9444
2010	251	31.67	15	27.08	0	1890.012094	449.7202695	45272	14.28242251	18.8942
2010	252	23.89	13.33	20.99	0.000183333	1038.530398	458.382063	45108	14.16806122	16.334
2010	253	19.44	12.78	17.61	6.67E-05	777.2339625	209.1403127	44943	14.0883066	16.319
2010	254	20	8.33	16.79	0	748.6275351	263.485535	44778	14.058825	15.4587
2010	255	22.78	10	19.26	0.660916667	216.9822357	403.3555877	44613	14.07475304	16.0153
2010	256	20.56	9.44	17.5	0.0016	619.4254481	126.2039014	44447	14.07223242	16.061
2010	257	25	11.11	21.18	0	1061.000073	405.7843615	44281	14.0473491	15.2815
2010	258	22.78	11.11	19.57	0	990.0210669	449.720336	44115	14.07596293	15.2651
2010	259	23.89	10.56	20.22	2.125225	372.4080067	449.9331773	43949	14.07724873	13.6265
2010	260	17.78	11.67	16.1	0.484125	375.0209321	75.17043362	43783	14.0613762	16.0326
2010	261	17.78	8.89	15.33	0.005	375.7720653	212.74792	43617	14.03864759	15.0883
2010	262	22.78	8.89	18.96	0.0195	480.5608047	402.2064722	43450	14.05566318	16.2853
2010	263	26.11	11.67	22.14	3.33E-05	1081.792827	295.5760289	43284	14.05900852	15.5423
2010	264	20.56	7.22	16.89	0	643.9765751	435.8988793	43117	14.05608913	14.0287
2010	265	25	7.22	20.11	0.01325	635.0261859	425.6442713	42951	14.03960712	16.9749
2010	266	30.56	15	26.28	0.00045	782.4224953	329.6917347	42784	14.02523337	18.5764
2010	267	28.89	16.11	25.38	0	1217.707535	307.9999015	42618	14.04872213	19.7085
2010	268	31.11	17.22	27.29	0	1751.510632	354.9064785	42452	14.05499819	19.2662
2010	269	25.56	10	21.28	0.000125	831.7510312	412.1974245	42286	14.10892469	15.6233
2010	270	18.33	10	16.04	1.195225	164.7892971	233.9716623	42120	14.76199701	16.2401
2010	271	20	13.33	18.17	1.661683333	426.1130836	86.05001987	41954	14.59044771	17.9458
2010	272	22.78	12.22	19.88	0	487.310112	259.4313154	41788	15.07225758	15.3815
2010	273	18.33	12.22	16.65	6.583841667	126.6738748	214.7145486	41623	14.98034766	15.8469
2010	274	17.78	12.22	16.25	0.844658333	547.663525	15.13537774	41458	15.01037678	15.8896756
2010	275	18.33	5.56	14.82	0	426.5965178	233.4912121	41293	15.02981759	14.2142396
2010	276	16.67	5.56	13.61	0	575.8699083	394.5447436	41129	14.88973958	13.9319896
2010	277	16.67	6.11	13.76	0.53855	278.6348763	289.1466528	40964	14.83211145	12.6624291
2010	278	9.44	6.67	8.68	0.212733333	133.5831472	86.52865767	40801	15.69228071	11.9723843
2010	279	11.11	7.78	10.19	0.127425	190.0250428	61.13835326	40637	16.84249999	12.1266057
2010	280	12.22	8.33	11.15	0.039575	463.5628944	72.59196459	40474	17.36479831	13.3272972
2010	281	18.89	7.22	15.68	0	655.8766755	288.5758208	40312	17.80968053	13.6096601
2010	282	22.22	7.78	18.25	0	779.6958025	370.8540907	40150	18.16065667	14.1877081
2010	283	22.78	6.67	18.35	0	692.8307783	354.684808	39989	18.526387	14.3656385
2010	284	25	6.67	19.96	0.066072917	741.3670975	311.1101754	39828	18.94913793	15.6590209
2010	285	24.44	12.78	21.24	0.1991125	521.5284483	233.0980304	39667	19.9875	15.75840758
2010	286	20.56	3.33	15.82	0.09274375	566.6405233	290.9405775	39508	19.36772297	14.04687118
2010	287	15.56	3.89	12.35	0.14305	231.1095259	368.9307005	39349	19.42986415	12.68492051
2010	288	12.22	6.11	10.54	0.1139375	468.0303829	65.34528182	39191	19.64180375	12.62757521
2010	289	13.89	6.11	11.75	0.114870833	761.6832293	254.9512252	39033	20.05730469	12.59779977
2010	290	16.11	6.67	13.51	0.122252083	685.4528063	350.3352451	38876	20.48508681	12.40150243
2010	291	19.44	5	15.47	0.162904167	555.0569026	325.8823234	38720	21.93483696	12.06404744
2010	292	11.67	5.56	9.99	0.1466625	282.4429187	102.6033221	38565	22.98052232	11.83687187
2010	293	13.33	2.78	10.43	0.1443875	414.7898982	224.5064228	38411	23.46168595	10.88915784
2010	294	15.56	3.33	12.19	0.1517625	699.3025205	284.9538913	38258	23.78260869	10.88478964
2010	295	13.33	3.33	10.58	0.159147917	490.3280585	231.0667008	38106	24.07839733	10.31456211
2010	296	10.56	3.33	8.57	0.166525	557.1833776	162.5480375	37955	24.57997295	10.41869062
2010	297	21.67	8.89	18.15	0.1739	1012.377238	244.9496201	37804	24.78021188	12.08935103
2010	298	22.78	10	19.26	0.189858333	789.3058313	239.4805141	37655	24.94283389	12.83336218
2010	299	20.56	10.56	17.81	0.18865625	358.6443465	130.6728654	37507	25.8094752	13.53192042
2010	300	20.56	11.11	17.96	0.5158375	632.6654051	169.857381	37361	27.42969848	14.43495777
2010	301	21.11	12.22	18.67	0.212004167	1297.96509	270.2244486	37215	34.82706662	13.22036132
2010	302	17.78	6.11	14.57	0.217233333	689.7388036	289.2316435	37071	34.42544574	11.95487083
2010	303	9.44	1.11	7.15	0.2224625	444.2267866	125.2095882	36928	27.80082963	10.55101398
2010	304	14.44	1.67	10.93	0.22984375	808.029403	208.8129946	36787	28.51077852	10.74510574
2010	305	10.56	0	7.65	0.232933333	472.1719969	234.5230149	36647	31.18412046	9.773544162
2010	306	8.89	-2.78	5.68	0.240304167	319.3909071	296.7376302	36509	30.7886185	8.593554507
2010	307	8.89	-3.33	5.53	0.247679167	312.2789986	293.5745548	36372	30.47688632	8.173389967
2010	308	11.67	-1.67	8	0.604264583	83.69635213	281.7861021	36237	30.20944354	8.874766995
2010	309	7.22	4.44	6.46	0.2888375	175.9257212	43.47605803	36103	30.13001737	8.921084346
2010	310	7.78	0	5.64	0.269820833	172.1142941	80.00140933	35971	29.95596238	8.299049815
2010	311	6.67	-1.67	4.38	0.277195833	210.7492259	116.8939119	35841	29.7840792	7.553858062
2010	312	7.22	-1.67	4.78	0.284570833	361.6596132	146.0227119	35713	29.65687324	7.789504884
2010	313	12.78	1.67	9.72	0.291952083	368.5225518	265.4905668	35586	29.47793168	8.407310404
2010	314	13.33	2.78	10.43	0.2993375	419.5066571	244.7657858	35462	29.27649638	9.100319845
2010	315	15.56	-0.56	11.13	0.25615	492.2783269	260.526291	35339	29.15115196	8.29
2010	316	14.44	-1.67	10.01	0	481.0964535	263.1157191	35219	29.5085697	7.700724117
2010	317	15.56	-2.78	10.51	0	559.4893169	267.9701585	35100	30.40064031	7.406992006
2010	318	16.11	-2.22	11.07	0	579.0470585	262.6648925	34984	30.15638934	7.196314421
2010	319	16.11	1.11	11.99	0	372.2928587	194.0663106	34870	29.76608421	8.0483
2010	320	11.11	5.56	9.58	0.537322917	152.0840852	158.693592	34759	29.17116363	7.7364
2010	321	13.33	6.11	11.35	0.203147917	320.9556925	34.858458	34649	28.40017139	8.5396
2010	322	10	4.44	8.47	0	232.0091213	52.87168451	34542	28.48696619	8.209782171
2010	323	7.22	0.56	5.39	0.0064375	269.3813889	49.58563694	34438	27.84628249	6.6344723
2010	324	8.33	1.67	6.5	0	277.0268488	179.9112598	34336	27.12167388	5.6271785
2010	325	9.44	0	6.85	0	207.7341228	83.42065036	34237	26.25222034	4.6788185
2010	326	10	0.56	7.4	0	298.3917824	198.6791215	34140	25.79192902	3.7228942
2010	327	16.11	7.78	13.82	0	539.9005792	182.9814327	34046	25.43489934	0.498696
2010	328	16.67	1.11	12.39	0	692.4428835	70.2960659	33954	25.14318485	0.4125533
2010	329	6.11	1.11	4.74	0.507597917	181.2210866	185.0201546	33866	24.89654376	0.0424671
2010	330	6.67	1.67	5.29	0.2343625	222.6173954	23.94814645	33780	24.68289353	-0.3481669
2010	331	5.56	-1.67	3.57	0.0618	302.8723865	179.8241616	33697	24.49444068	-0.1439308
2010	332	1.67	-1.11	0.9	0.027897917	235.2704458	57.29645729	33618	24.32586385	0.1336903
2010	333	5.56	-4.44	2.81	0	198.9130146	218.8244882	33541	24.17336756	0.0839014
2010	334	7.22	-4.44	4.01	0.559314583	144.0269041	208.2124359	33467	24.03414936	-0.3142969
2010	335	15.56	6.11	12.96	0.634014583	217.6643005	26.84532608	33397	23.90608103	-0.4163585
2010	336	8.89	-3.33	5.53	0	225.6602918	45.28068487	33329	23.78750827	-0.5104042
2010	337	0	-3.89	-1.07	0	141.7869422	89.4749762	33265	23.67711968	-0.4246002
2010	338	0.56	-3.33	-0.51	0	141.1717228	80.63608046	33204	23.63927835	-0.3363124
2010	339	1.11	-5	-0.57	0	208.3396032	103.3367807	33146	23.47560764	-0.0916581
2010	340	0	-4.44	-1.22	0	185.6257966	138.0159716	33092	23.36989583	-0.4082297
2010	341	-1.67	-5.56	-2.74	0	148.6670345	85.9237707	33041	23.28010417	-0.4808244
2010	342	-2.22	-6.67	-3.44	0	170.1421997	83.27072703	32993	23.18447917	-0.3838433
2010	343	-2.22	-7.78	-3.75	0	169.1102716	107.3432541	32949	23.16821181	-0.1862683
2010	344	-1.11	-7.78	-2.94	0.8478	92.37163869	211.5297682	32909	23.18052083	-0.0854486
2010	345	-1.11	-6.11	-2.49	0	125.3133763	51.68748746	32872	23.17496528	-0.2059129
2010	346	3.33	-6.67	0.58	6.78475	53.99989583	162.524198	32838	23.1303125	-0.4024718
2010	347	6.67	-5.56	3.31	0.14025	286.7707843	32.71896374	32808	23.08190972	-0.5723863
2010	348	-2.78	-10.56	-4.92	0.25175	157.1837901	140.6240406	32782	23.07232639	-0.708205
2010	349	-6.11	-10	-7.18	0.0091	133.9123063	99.66841427	32759	23.05921875	-0.6803187
2010	350	-4.44	-10	-5.97	0.00675	116.3516088	108.0106295	32740	23.04821181	-0.4623088
2010	351	-3.89	-10	-5.57	0	127.3264968	101.0334139	32724	23.03782986	-0.4186165
2010	352	-1.11	-6.67	-2.64	0	177.9268931	111.1419054	32712	23.04263889	-0.0924484
2010	353	-0.56	-10.56	-3.31	0	125.3856509	131.7184501	32704	23.00494792	-0.0424337
2010	354	-1.67	-11.11	-4.26	0.0354	122.916714	151.1975247	32699	22.98447917	0.0210161
2010	355	-1.67	-4.44	-2.43	0.0081	206.3356866	51.97561328	32698	23.06710069	-0.0467239
2010	356	1.67	-5	-0.17	0	258.9447398	198.1632055	32701	23.14897569	0.2715412
2010	357	2.78	-3.89	0.94	0.0417	253.2793513	117.3262651	32707	23.17597222	0.0861594
2010	358	1.11	-5	-0.57	0.0011	228.4464871	110.8752556	32717	23.11803819	-0.3177968
2010	359	0.56	-5	-0.97	0.0005	180.6076639	179.667051	32731	23.05378472	-0.4958401
2010	360	-1.11	-6.11	-2.49	0.0301	171.8522103	72.08387616	32749	22.98225694	-0.399988
2010	361	-2.78	-8.89	-4.46	0	194.8111694	71.33833997	32770	22.94253472	-0.3877948
2010	362	-2.22	-8.89	-4.06	0.0014	193.5319113	200.0247168	32794	22.91946181	0.1199165
2010	363	1.11	-6.11	-0.88	0	209.7445961	162.3447019	32822	22.94737847	-0.2555889
2010	364	4.44	-7.22	1.24	0.0145	149.7636122	180.2881444	32854	22.99057292	-0.4129715
2010	365	3.33	-7.22	0.43	0	147.0148056	94.76003455	32889	23.03008681	-0.512216126
