"Shalehills,"	2012	:	input	for	MTCLIM	v4.3				
MTCLIM	v4.3	OUTPUT	FILE	:	Mon	Jan	16	16:32:50	2012	
	yday	Tmax	Tmin	Tday	prcp	VPD	srad	daylen	SoilW	SoilT
		(degC)	(degC)	(degC)	(cm)	(Pa)	(Wm-2)	(s)	(%)	(deg C)
2008	1	4.44	-2.78	2.46	0.945	162.1754386	107.3576895	32928	22.43286237	2.6333
2008	2	3.89	-5.56	1.29	0.02	187.1368421	242.3626217	32971	22.45182191	2.3716
2008	3	-3.33	-11.11	-5.47	0	101.5438596	153.795681	33017	22.44491683	2.0111
2008	4	-4.44	-10.56	-6.13	0	79.34736842	210.6844795	33066	22.1757048	1.4889
2008	5	3.33	-9.44	-0.18	0	213.3263158	184.7731816	33119	22.06966314	0.3346
2008	6	5.56	-0.56	3.88	0.09	153.9578947	216.999156	33175	22.01055176	0.271
2008	7	7.78	5	7.01	0.035	91.50175439	201.3661912	33234	22.61795184	0.8296
2008	8	18.89	6.11	15.38	0.025	564.2736842	215.6980118	33296	22.75374789	2.3995
2008	9	19.44	8.33	16.39	0.06	537.6280702	150.879084	33362	22.49140902	4.9207
2008	10	11.67	-0.56	8.31	0	356.7017544	204.7227424	33431	22.31488848	6.138
2008	11	7.78	-0.56	5.49	2.36	221.4175439	101.7295765	33503	23.39872183	5.4222
2008	12	10.56	2.78	8.42	0	250.8	220.641115	33579	22.9789139	4.5526
2008	13	6.11	-2.22	3.82	0	199.2421053	135.333987	33657	22.76549167	4.5511
2008	14	3.89	-2.22	2.21	0.12	138.4210526	111.5724702	33738	22.35775968	3.7009
2008	15	2.78	-2.78	1.25	0	119.7754386	163.3214476	33822	22.14398849	3.1753
2008	16	-1.11	-2.78	-1.57	0	32.70175439	175.9470937	33909	21.95869504	3.0431
2008	17	0	-3.33	-0.92	0.57	65.66315789	56.70431483	33999	21.71235602	2.2758
2008	18	2.22	-2.22	1	0.33	96.6877193	269.1626188	34092	21.6233049	2.0973
2008	19	2.78	-6.67	0.18	0	173.9508772	105.2589581	34187	21.66180194	1.8314
2008	20	-1.11	-12.22	-4.17	0	146.877193	205.0519469	34285	21.68214923	1.8171
2008	21	-10	-13.89	-11.07	0	37.60701754	306.8234165	34386	22.72986699	1.1455
2008	22	-5	-13.89	-7.44	0	98.44210526	78.45701528	34489	22.35005473	0.3387
2008	23	2.78	-6.11	0.33	0	167.4526316	314.5387484	34595	22.60412948	-0.1162
2008	24	-2.78	-7.78	-4.15	0	76.32280702	179.3039219	34703	22.7539344	-0.245
2008	25	-2.22	-10	-4.36	0	109.6210526	321.8284598	34814	22.03016899	-0.3292
2008	26	-3.89	-10	-5.57	0.04	82.45614035	144.0329554	34926	21.71146784	-0.3207
2008	27	-2.78	-8.33	-4.31	0	82.82807018	171.1772159	35042	21.43348163	-0.2226
2008	28	-0.56	-5	-1.78	0	80.60350877	214.1984129	35159	21.33210971	-0.4557
2008	29	2.22	-2.22	1	0.4	96.6877193	60.02176994	35278	21.66916172	-0.377
2008	30	5.56	-1.11	3.72	1.5	164.3087719	331.9026836	35400	21.82319847	-0.2071
2008	31	0.56	-8.89	-2.04	0	149.9578947	310.5629592	35523	22.61056212	-0.0573
2008	32	1.11	-7.78	-1.33	2.715	149.9017544	46.30497349	35649	22.72909372	0.0135
2008	33	2.78	-2.22	1.4	0.005	110.245614	73.32927102	35776	23.39756124	0.1383
2008	34	1.11	-5.56	-0.72	0	123.1789474	260.4022003	35905	23.21961591	0.3227
2008	35	6.11	-5	3.06	0.02	238.077193	38.36863137	36036	23.00507107	0.2484
2008	36	5	0.56	3.78	1.02	115.4596491	80.53543089	36169	22.5631461	0.405
2008	37	13.33	3.33	10.58	0.4	351.2280702	78.46806049	36303	22.29120772	0.4597
2008	38	16.67	1.67	12.54	1.01	536.0421053	45.74489572	36440	22.78592202	0.9713
2008	39	3.33	-1.11	2.11	0.06	103.8526316	123.2830467	36577	23.12407794	3.2956
2008	40	2.22	-2.22	1	0.78	96.6877193	138.0326833	36716	23.2456811	2.2648
2008	41	4.44	-1.67	2.76	0.21	143.4385965	181.0377947	36857	23.4455725	1.8111
2008	42	-1.11	-16.67	-5.39	0	170.5473684	361.1028676	36999	23.34650658	1.3017
2008	43	-8.89	-16.67	-11.03	1.91	68.41403509	67.61667071	37143	23.1687145	0.816
2008	44	-3.33	-11.67	-5.63	0.57	106.2385965	88.37750422	37287	22.83362265	0.4569
2008	45	0.56	-7.78	-1.74	0	138.5403509	386.4039751	37433	22.79570318	0.2723
2008	46	2.22	-7.78	-0.53	0	173.5438596	48.00670552	37581	23.35262095	0.0949
2008	47	2.78	-11.11	-1.04	0	213.5157895	360.9479711	37729	24.49588406	0.3752
2008	48	2.22	-10.56	-1.29	0.23	197.9649123	113.6486708	37879	24.22939658	0.5089
2008	49	8.89	-0.56	6.29	0.44	257.7403509	149.1559073	38029	23.86939698	0.7524
2008	50	8.33	-4.44	4.82	0	295.9298246	268.2594484	38181	24.61057646	0.8765
2008	51	-1.11	-10	-3.56	0	128.9964912	278.4670527	38334	24.1182229	0.7065
2008	52	-3.89	-12.78	-6.33	0	106.4491228	408.2062515	38487	23.65099389	0.4298
2008	53	-2.22	-12.78	-5.13	1.05	132.2526316	81.46348533	38642	23.47171224	-0.0571
2008	54	-2.78	-5.56	-3.54	0.08	46.58245614	206.2048044	38798	23.22323909	-0.0819
2008	55	1.67	-8.89	-1.24	0	172.5333333	423.5156852	38954	22.93714966	-0.0086
2008	56	5	-8.89	1.18	0	247.7824561	333.055432	39111	22.90303288	-0.1338
2008	57	2.78	-5	0.64	0.79	153.2701754	48.759836	39269	23.10203226	0.1372
2008	58	1.67	-3.33	0.29	0.01	102.5754386	224.413843	39428	23.33935958	0.0682
2008	59	-2.22	-11.67	-4.82	0	124.0421053	367.6338697	39587	23.3043275	0.2247
2008	60	1.67	-12.22	-2.15	1.565	197.9789474	241.4387501	39747	23.10531594	-0.0027
2008	61	1.67	-5.56	-0.32	0	135.3192982	267.2369008	39907	23.38590243	-0.3438
2008	62	4.44	-5.56	1.69	0	200.9473684	350.9771139	40068	23.22005518	-0.2307
2008	63	15.56	1.67	11.74	2.165	483.3684211	414.2868009	40230	23.34860802	-0.403
2008	64	7.78	1.67	6.1	3.805	176.9894737	20.58868093	40392	23.19418515	-0.1837
2008	65	4.44	-2.78	2.46	0	162.1754386	93.01013439	40555	23.20022083	-0.0264
2008	66	7.78	-2.78	4.88	1.01	257.2491228	421.6082568	40718	23.17899688	0.4275
2008	67	7.22	-1.11	4.93	2.03	213.8035088	111.9551392	40882	23.46756237	0.5381
2008	68	3.33	-7.22	0.43	0	192.8140351	38.96711007	41046	23.48976381	1.47
2008	69	0	-6.67	-1.83	0	114.4140351	427.5723125	41210	23.19382173	1.4686
2008	70	6.11	-3.89	3.36	0	223.8807018	307.5047976	41375	23.23491002	1.5206
2008	71	6.11	1.11	4.74	0.01	136.2807018	266.7002889	41540	23.13220634	0.9588
2008	72	4.44	-3.33	2.31	0	170.8210526	151.646709	41705	23.12884752	1.038
2008	73	13.33	-3.33	8.75	0.015	456.6035088	411.4743253	41870	22.95540018	1.986
2008	74	15	3.89	11.94	0.335	414.0701754	323.0455086	42036	22.84922106	1.8045
2008	75	10	1.11	7.56	0	265.5368421	247.5309227	42202	22.95390461	2.8376
2008	76	5.56	-3.89	2.96	0	208.5403509	163.6050793	42368	23.15901455	4.2072
2008	77	7.78	-3.89	4.57	0.1	272.2807018	462.9329948	42534	23.19109983	4.5548
2008	78	5.56	2.22	4.64	1.52	93.68421053	53.51101848	42701	23.27047014	3.2693
2008	79	12.78	1.67	9.72	0.21	362.0140351	76.81797187	42867	23.32944194	3.7647
2008	80	3.89	-2.78	2.06	0	147.677193	336.8751888	43033	23.15680999	3.3654
2008	81	6.11	-2.78	3.67	1.19	207.922807	468.9779398	43200	22.99001692	4.1513
2008	82	5.56	-6.11	2.35	0	235.8736842	285.277683	43366	22.87275704	4.0091
2008	83	6.11	-5.56	2.9	0	244.554386	510.7787885	43533	22.75445745	4.0603
2008	84	5.56	-4.44	2.81	0	216	376.0483535	43699	22.76624365	2.7133
2008	85	9.44	-3.89	5.78	0	324.4350877	479.0154337	43865	23.27712112	2.7688
2008	86	12.22	1.67	9.32	0.125	339.4175439	323.6223883	44032	23.40732736	2.3586
2008	87	6.67	2.22	5.44	0.615	128.1684211	57.97117517	44198	23.29730035	3.636
2008	88	7.22	-2.78	4.47	0	240.3929825	70.15533215	44363	23.14409215	4.7758
2008	89	7.22	-4.44	4.01	0	262.7508772	531.2154326	44529	22.98450588	4.2086
2008	90	10	-4.44	6.03	0	348.8912281	497.9753216	44695	22.85585292	3.8267
2008	91	13.33	4.44	10.89	0.155	325.3473684	225.2769728	44860	22.86006466	3.82
2008	92	21.11	1.11	15.61	0.005	779.5157895	172.8890394	45025	22.82315461	4.4676
2008	93	8.33	-2.78	5.28	0	274.5263158	466.8634875	45190	23.75768561	5.3725
2008	94	9.44	-2.22	6.24	0.9	302.6736842	317.4336773	45354	24.20072526	6.5089
2008	95	11.67	3.33	9.38	0.19	281.5789474	112.3247726	45518	23.96519863	5.7371
2008	96	12.22	4.44	10.08	0	277.5157895	277.5338981	45681	23.71660414	4.8681
2008	97	15	4.44	12.1	0	401.4596491	405.2141564	45845	23.52434562	5.2703
2008	98	8.33	5.56	7.57	0	94.65263158	126.1629535	46007	23.30318807	5.9689
2008	99	14.44	6.11	12.15	0	332.6807018	261.7510234	46169	23.5740991	6.6054
2008	100	16.11	6.11	13.36	0	414.5754386	256.6507954	46331	24.07356588	6.0174
2008	101	20.56	6.67	16.74	0.74	649.7052632	479.4604878	46492	24.51124816	7.0093
2008	102	20	11.67	17.71	0.19	459.0105263	143.7465115	46653	24.35706225	7.3927
2008	103	18.33	3.89	14.36	0.225	581.7052632	457.5626642	46813	23.8896313	8.8244
2008	104	8.33	0.56	6.19	0.015	218.6315789	169.5090905	46972	23.6385555	9.4989
2008	105	10.56	-2.22	7.04	0	340.6947368	401.2751692	47131	23.45901233	9.589
2008	106	15	0	10.88	0	484.5333333	561.5878957	47289	23.37304581	7.5295
2008	107	20	2.22	15.11	0	701.6982456	552.2627197	47446	23.86494195	6.8661
2008	108	26.11	7.22	20.92	0	1022.021053	554.4629847	47602	23.56095657	7.2463
2008	109	28.33	10.56	23.44	0	1130.484211	537.8415763	47758	23.34718074	7.8626
2008	110	27.22	12.22	23.1	3.12	984.1192982	416.5839038	47912	23.4833494	10.7483
2008	111	15.56	12.78	14.79	0.24	144.8140351	114.7453709	48066	23.46819109	10.9023
2008	112	21.11	11.67	18.51	0	532.8070175	275.9571123	48219	23.68810491	11.4083
2008	113	22.22	10	18.86	0	666.6666667	413.340583	48370	23.72067003	11.6239
2008	114	23.89	10.56	20.22	0	768.9403509	420.1529441	48521	23.52504112	11.5164
2008	115	22.22	11.11	19.17	0	629.8245614	519.813544	48671	24.48267071	11.756
2008	116	25	11.11	21.18	2.11	836.3719298	386.4334788	48819	24.21320739	11.7285
2008	117	27.22	10.56	22.64	0.43	1034.203509	392.209431	48966	24.24608009	12.6156
2008	118	19.44	7.22	16.08	2.13	568.5824561	410.8230982	49112	24.18762308	13.1138
2008	119	11.11	5	9.43	0	217.0666667	85.5561443	49257	24.4982409	11.3107
2008	120	13.89	2.78	10.83	0	387.2912281	439.6441772	49401	24.43124562	10.8609
2008	121	12.22	3.33	9.78	0	304.245614	404.569364	49543	24.34235709	9.7801
2008	122	15	3.89	11.94	0	414.0701754	256.0311173	49683	24.20671203	9.3523
2008	123	23.33	9.44	19.51	0.66	761.6350877	312.3472894	49823	24.36241013	10.2973
2008	124	19.44	10	16.85	0.82	484.7017544	286.4218775	49960	24.65154213	11.6684
2008	125	16.67	2.78	12.85	0	516.7719298	382.8252355	50096	24.41410709	11.531
2008	126	20.56	5.56	16.43	0	674.7789474	539.717107	50231	24.12170832	11.0252
2008	127	22.78	8.33	18.81	0	752.9473684	415.900959	50363	23.92661523	11.2377
2008	128	26.11	12.78	22.44	0.21	870.1122807	487.7954253	50495	23.68962094	11.9504
2008	129	21.11	6.67	17.14	0.99	684.2807018	207.1066688	50624	23.68339304	12.9111
2008	130	12.22	7.78	11	0	179.5649123	103.0653977	50751	23.66613596	11.9294
2008	131	18.33	6.67	15.12	0.05	518.9263158	380.0835348	50877	23.21340848	11.4472
2008	132	16.11	1.11	11.99	2.35	518.3789474	223.787451	51000	22.80074403	10.7297
2008	133	10	2.22	7.86	0	242.4	136.5087242	51122	22.03464572	9.3168
2008	134	22.22	7.22	18.1	0.015	743.0105263	573.336625	51241	21.70284333	10.2698
2008	135	21.67	10	18.46	0.115	628.645614	286.9728961	51358	21.73207372	10.9538
2008	136	22.78	8.89	18.96	1.31	738.0280702	412.6879141	51473	21.60811411	12.1671
2008	137	11.11	5.56	9.58	0.02	201.5017544	64.68117319	51586	21.21717763	11.2347
2008	138	18.89	6.67	15.53	0.61	550.5192982	215.1321547	51697	21.68857529	10.596
2008	139	15.56	4.44	12.5	0.05	428.0421053	236.0624843	51805	22.18335122	10.5484
2008	140	12.78	4.44	10.49	0.98	301.1508772	337.4939703	51910	21.98974167	9.9998
2008	141	12.78	6.11	10.94	0.47	256.322807	149.0528896	52014	21.89338815	9.421
2008	142	15	6.11	12.56	0.12	359.3473684	291.2318379	52114	21.7171656	9.4271
2008	143	13.33	6.67	11.5	0	264.9403509	377.579158	52212	20.77339497	12.1018
2008	144	18.89	6.11	15.38	0	564.2736842	488.9290166	52308	20.68110857	9.9667
2008	145	21.67	6.11	17.39	0	731.9578947	530.3457634	52400	21.02097882	10.4907
2008	146	23.89	9.44	19.92	0	801.9157895	583.9905125	52490	20.6694181	9.8593
2008	147	29.44	13.89	25.17	0	1131.242105	490.009624	52577	20.02083722	10.6767
2008	148	27.22	7.22	21.72	0	1109.866667	328.5980403	52662	20.05465056	11.4906
2008	149	19.44	6.11	15.78	0	596.3157895	585.2339268	52743	19.8036862	12.6299
2008	150	24.44	8.33	20.01	0	871.8105263	570.3446546	52821	19.70674752	12.0058
2008	151	26.11	12.22	22.29	0.22	889.5859649	459.8854545	52896	20.27276672	12.2466
2008	152	27.22	17.78	24.62	0	745.4877193	352.9051143	52969	20.08468141	13.3526
2008	153	25.56	10	21.28	0	913.1789474	486.2564576	53038	19.76327191	14.0613
2008	154	25	13.33	21.79	0	757.5298246	542.0388867	53103	19.46188689	13.5501
2008	155	27.78	15	24.26	2.01	930.4982456	379.1178573	53166	18.38277808	13.7085
2008	156	21.11	17.78	20.19	0.15	232.4	90.04834194	53225	18.64758274	14.5396
2008	157	28.33	19.44	25.89	0	758.1894737	345.9921548	53281	18.41790954	15.5299
2008	158	32.78	20.56	29.42	0	1181.515789	525.1338733	53334	18.05957077	16.8797
2008	159	33.33	23.33	30.58	0	1067.480702	518.1060825	53383	17.5825114	17.5324
2008	160	32.22	22.78	29.62	0	969.2842105	429.2805031	53429	17.20444083	17.9919
2008	161	33.89	21.67	30.53	1.09	1251.333333	544.4346842	53471	18.76809314	18.3894
2008	162	32.22	15.56	27.64	0.11	1357.122807	410.0632218	53510	19.17457065	18.0876
2008	163	28.33	16.11	24.97	0	934.1684211	575.5212714	53546	18.75570961	17.4722
2008	164	30.56	17.78	27.04	0.04	1079.873684	545.3852399	53577	18.35064698	17.2305
2008	165	31.67	19.44	28.31	0.065	1115.017544	437.034623	53606	18.26314781	17.426
2008	166	25	15.56	22.4	0.005	661.0736842	181.2395301	53630	17.12025534	17.6316
2008	167	27.22	16.67	24.32	0.68	803.0315789	548.206464	53651	16.76559638	17.3766
2008	168	26.67	13.89	23.15	0.82	875.8596491	355.7539921	53669	17.66555158	16.6444
2008	169	19.44	13.33	17.76	0.14	352.6877193	299.6079692	53682	18.67489779	15.5887
2008	170	18.89	8.89	16.14	0	487.4385965	230.6295793	53693	18.24896922	14.8479
2008	171	20	11.11	17.56	0	480.1614035	342.9473361	53699	17.8349594	14.0601
2008	172	26.11	13.33	22.6	0	849.5789474	471.4200588	53702	17.03539826	14.5901
2008	173	28.33	15	24.67	1.01	982.3789474	515.138638	53701	16.38916945	15.444
2008	174	26.67	15.56	23.61	0.03	805.2491228	539.7242811	53696	16.22145624	16.2413
2008	175	25.56	12.78	22.04	0.1	823.9719298	482.1374236	53688	16.79614446	16.1529
2008	176	25	13.33	21.79	0	757.5298246	423.956815	53676	16.51346575	15.6037
2008	177	27.22	15	23.86	0.15	879.6982456	441.7024282	53661	15.6413441	15.8874
2008	178	28.33	18.33	25.58	1.2	822.3719298	305.0543614	53641	15.87012655	16.7691
2008	179	26.67	19.44	24.68	0	595.7403509	276.8843134	53619	15.84608388	17.3252
2008	180	28.89	18.89	26.14	0.04	847.0035088	350.0097029	53592	15.43183429	17.8698
2008	181	27.22	17.22	24.47	0.14	774.9263158	308.2490012	53562	14.27014638	17.7509
2008	182	25.56	15.56	22.81	0	708.1122807	417.4633376	53529	13.9962467	17.551
2008	183	22.78	13.33	20.18	0	584.9122807	300.6619244	53491	13.70577061	16.9519
2008	184	27.22	15	23.86	0.02	879.6982456	560.1282857	53451	13.39907778	16.5797
2008	185	25.56	18.33	23.57	0.02	561.3684211	231.8553748	53407	13.64835846	16.5041
2008	186	23.89	17.78	22.21	2.12	450.7157895	199.8697127	53359	13.50663522	16.7692
2008	187	24.44	16.11	22.15	0	587.5438596	256.6897839	53308	13.48462162	16.922
2008	188	27.78	17.22	24.88	0.01	827.3754386	370.6546738	53254	15.33927766	17.3752
2008	189	27.22	18.89	24.93	0	682.4421053	297.1433942	53196	16.20220706	18.0149
2008	190	30.56	18.89	27.35	0.44	1022.140351	501.4656629	53135	16.25071218	18.607
2008	191	26.67	16.11	23.76	0	779.2982456	190.4580091	53071	16.40886111	18.6778
2008	192	26.67	15	23.46	0	829.9649123	565.0716361	53004	16.02905286	18.4504
2008	193	28.33	16.67	25.12	0	908.1964912	471.9697353	52933	15.00846046	17.8693
2008	194	31.11	19.44	27.9	0.33	1052.449123	520.0338063	52860	14.86538813	18.5084
2008	195	27.78	17.22	24.88	0	827.3754386	355.3178675	52783	14.70861912	19.1933
2008	196	26.67	15.56	23.61	0	805.2491228	522.2584862	52703	14.69547795	18.6574
2008	197	28.33	16.11	24.97	0	934.1684211	560.3976055	52620	14.17098353	17.8588
2008	198	31.11	17.22	27.29	0	1166.105263	557.7513277	52535	14.42666693	18.0221
2008	199	31.67	20	28.46	0.12	1083.508772	438.8623918	52446	14.48174819	18.7819
2008	200	32.22	21.11	29.17	0	1081.25614	413.3001242	52355	13.56566021	19.3843
2008	201	31.67	20	28.46	0.385	1083.508772	517.5354854	52261	14.19664962	19.7268
2008	202	32.22	18.89	28.56	0.005	1208.421053	409.5625719	52164	15.06528973	19.3486
2008	203	29.44	18.33	26.39	0.4	934.6666667	405.7065783	52065	13.71151917	19.5527
2008	204	28.89	19.44	26.29	1.29	814.6315789	414.7642553	51963	14.9115811	19.5536
2008	205	23.33	15	21.04	1.04	552.8491228	134.2814223	51858	15.32208169	18.7001
2008	206	25	14.44	22.1	0	711.6350877	347.1107418	51751	14.1507067	17.7472
2008	207	27.78	15.56	24.42	0	906.5894737	534.5950002	51642	14.59395109	17.6134
2008	208	28.33	18.33	25.58	0	822.3719298	433.7922375	51530	14.43511429	18.1136
2008	209	27.22	15.56	24.01	0	855.3824561	487.9174592	51417	13.56674398	18.8044
2008	210	28.89	17.22	25.68	0	935.6210526	493.0210721	51300	14.17446383	18.2718
2008	211	30	17.78	26.64	0.52	1021.207018	475.7485444	51182	14.0187764	18.6567
2008	212	29.44	18.33	26.39	0	934.6666667	331.2877091	51062	13.69232976	18.6276
2008	213	28.89	17.78	25.83	0	907.4596491	465.3030487	50939	13.5732024	19.3539
2008	214	28.33	18.89	25.74	0.01	791.0035088	488.1866181	50815	13.46253697	19.1589
2008	215	27.78	16.11	24.57	0	881.4526316	403.8918087	50688	13.24605857	19.1935
2008	216	25.56	15	22.65	0	733.6140351	401.7587619	50560	13.02556115	18.5433
2008	217	27.78	16.67	24.72	0.1	855.0596491	479.2455879	50430	13.02352204	17.5625
2008	218	24.44	19.44	23.07	0.39	394.4982456	146.635572	50298	13.33310692	18.5340342
2008	219	28.89	16.67	25.53	0.05	962.4561404	530.552428	50164	13.21327865	19.0645986
2008	220	26.67	14.44	23.31	0.1	853.4947368	348.5250954	50029	12.67940306	18.4015
2008	221	23.89	12.22	20.68	0	712.2807018	435.3575924	49892	12.971409	17.5723
2008	222	24.44	13.89	21.54	0.02	690.2175439	512.9065603	49754	13.03277719	17.1444
2008	223	25	14.44	22.1	0.04	711.6350877	470.5948724	49614	12.98293672	17.0922
2008	224	21.67	14.44	19.68	0	453.9789474	312.5321596	49472	13.58438197	16.6508
2008	225	24.44	12.78	21.24	0	734.6105263	409.6248125	49330	14.05792775	16.8491
2008	226	27.78	13.89	23.96	0.55	974.7929825	429.6788924	49186	14.3278417	16.9032
2008	227	25.56	15.56	22.81	0	708.1122807	329.5958401	49040	14.30159717	17.2583
2008	228	25.56	12.78	22.04	0	823.9719298	440.5088354	48894	14.08155389	17.1926
2008	229	25.56	14.44	22.5	0	757.9157895	485.5606204	48746	13.97534869	16.8084
2008	230	27.22	15	23.86	0	879.6982456	479.3240941	48597	13.75831424	16.8672
2008	231	29.44	17.22	26.08	0	991.4596491	519.4066383	48446	12.97024976	17.3253
2008	232	26.11	10	21.68	0	957.4807018	374.7148773	48295	12.51460892	17.4219
2008	233	25.56	11.11	21.58	0	880.4421053	558.3377853	48143	12.40697662	16.569
2008	234	29.44	12.78	24.86	0	1168.575439	536.697562	47990	12.25788883	16.206
2008	235	30	16.11	26.18	0	1099.087719	528.263379	47836	15.002515	17.3533926
2008	236	27.78	17.78	25.03	0	798.3508772	487.5682976	47681	15.43893596	17.32
2008	237	31.11	18.89	27.75	0.13	1082.968421	468.8788006	47525	15.15793269	17.885
2008	238	27.78	12.78	23.65	0	1014.603509	525.5087823	47368	16.5070038	18.3341
2008	239	26.11	13.33	22.6	0.003895833	849.5789474	521.6431053	47210	18.04322225	17.1947
2008	240	26.67	13.89	23.15	0.634125	875.8596491	430.7492561	47052	18.112247	16.4924
2008	241	17.78	15.56	17.17	0.228345833	133.9719298	84.78493592	46893	17.97716697	16.2892
2008	242	21.11	16.67	19.89	0	298.2175439	151.1140497	46734	17.69444287	16.5503
2008	243	27.22	12.22	23.1	0	984.1192982	303.0324007	46573	17.37070562	17.3308
2008	244	27.22	13.33	23.4	0	945.6491228	536.7217159	46413	17.0157996	16.9499
2008	245	26.67	12.78	22.85	0	917.2561404	540.0980303	46251	16.67870951	16.7094
2008	246	29.44	14.44	25.32	0	1110.919298	528.1481265	46089	16.38745031	16.6083
2008	247	30.56	15.56	26.43	0	1179.347368	507.259673	45927	16.15251047	17.011
2008	248	31.67	16.11	27.39	0	1274.596491	481.1607814	45764	15.95179698	17.3619
2008	249	31.11	20.56	28.21	0.05584375	986.9403509	451.3041667	45600	15.78744669	18.0183
2008	250	22.78	12.78	20.03	0.001297917	607.6070175	102.935339	45437	15.59210893	18.2026
2008	251	25	13.89	21.94	0.002595833	735.1508772	420.2074571	45272	15.3506955	17.5492
2008	252	26.67	13.89	23.15	0.62999375	875.8596491	477.720094	45108	15.17528647	17.0298
2008	253	20	9.44	17.1	0.0122	537.7473684	103.7893554	44943	15.7516308	16.8908
2008	254	21.11	10.56	18.21	0.00726875	572.877193	485.4580151	44778	17.21760839	15.9164
2008	255	20.56	13.33	18.57	0.68049375	426.7087719	303.217672	44613	19.04936027	15.5969
2008	256	21.11	18.33	20.35	0.05988125	197.4105263	84.06061151	44447	20.34812069	16.6735
2008	257	24.44	19.44	23.07	0.0077875	394.4982456	200.9966803	44281	20.29649786	17.7593
2008	258	29.44	18.89	26.54	0	904.1824561	374.1760172	44115	20.09400245	18.8017
2008	259	22.78	11.67	19.72	0	649.7964912	298.3259232	43949	19.73648963	18.4292
2008	260	20	9.44	17.1	0.002595833	537.7473684	226.0229313	43783	19.61662007	16.4935
2008	261	23.33	10	19.67	0	745.277193	475.0160029	43617	19.55978253	15.5586
2008	262	21.11	7.78	17.44	0	656.7087719	442.9891369	43450	19.37552103	15.5356
2008	263	20.56	8.33	17.19	0	606.2245614	419.7895989	43284	19.21202096	14.7182
2008	264	21.11	10	18.06	0.003895833	591.4526316	409.7163764	43117	19.08825663	14.6808
2008	265	24.44	10	20.47	0.002595833	827.4035088	407.9027962	42951	19.02259981	14.9917
2008	266	19.44	7.78	16.24	0	553.522807	190.3744858	42784	18.9152086	15.1433
2008	267	21.11	8.89	17.75	0	625.8315789	410.743606	42618	18.75889935	14.7747
2008	268	23.33	9.44	19.51	0	761.6350877	461.1823942	42452	18.60560938	14.6575
2008	269	20.56	11.11	17.96	0.00519375	516.3438596	365.7231471	42286	18.48876708	14.6913
2008	270	17.78	12.22	16.25	0.307825	297.5859649	85.06794872	42120	18.44954166	14.7694
2008	271	21.11	16.67	19.89	0.688397917	298.2175439	146.5197597	41954	18.86950656	15.7642
2008	272	22.22	13.89	19.93	0.0077875	519.9087719	216.5280942	41788	19.0439095	16.7114
2008	273	20.56	10	17.65	0	555.0736842	270.7031689	41623	18.90905431	16.277
2008	274	18.33	10	16.04	0.233795833	417.4245614	189.9629987	41458	18.82785673	14.9941
2008	275	15.56	8.33	13.57	0	320.5614035	173.7329329	41293	18.74617588	14.2988
2008	276	12.78	8.33	11.56	0	185.5578947	241.5923071	41129	18.60818301	13.4885
2008	277	15	5	12.25	0.103904167	388.154386	164.1662924	40964	18.59466259	12.8218
2008	278	14.44	6.11	12.15	0	332.6807018	231.4760913	40801	18.55343549	12.096
2008	279	16.67	7.78	14.22	0.002595833	396.3438596	416.6164825	40637	18.45369132	12.5594
2008	280	16.67	2.22	12.69	0.0181875	526.7087719	375.476627	40474	18.34567124	12.4969
2008	281	16.67	2.78	12.85	0.01688125	516.7719298	432.2290881	40312	19.44525771	11.4662
2008	282	16.67	7.22	14.07	0.035064583	412.7508772	218.5872478	40150	20.44377715	11.6906
2008	283	21.67	8.89	18.15	0	662.4070175	389.0816224	39989	20.43327937	13.4404
2008	284	21.11	6.11	16.99	0	696.8982456	422.8133725	39828	20.40799126	13.0871
2008	285	21.11	5.56	16.83	0	708.7719298	416.9137066	39667	20.32594169	12.6131
2008	286	22.78	7.78	18.65	0	767.0315789	407.251139	39508	20.30136725	12.7574
2008	287	25	8.89	20.57	0	899.6140351	307.6376782	39349	20.14637708	12.9431
2008	288	26.11	8.89	21.37	0	985.8385965	340.0631778	39191	20.09127107	13.3506
2008	289	23.33	12.78	20.43	0	649.0245614	314.6322343	39033	20.06064895	14.551
2008	290	20	8.89	16.94	0	555.0877193	96.48724149	38876	19.97436166	14.5592
2008	291	12.22	2.78	9.62	0	316.6035088	154.1217459	38720	19.89869596	12.6226
2008	292	10.56	-1.11	7.35	0	324.5192982	289.662077	38565	19.86797451	11.1322
2008	293	11.67	-1.11	8.15	0.003895833	365.1789474	411.4896254	38411	19.84349222	10.3175
2008	294	16.11	-0.56	11.53	0.002595833	541.9649123	367.0695802	38258	19.84196752	9.7647
2008	295	10.56	2.78	8.42	0	250.8	217.2820028	38106	19.84599407	9.9186
2008	296	9.44	0.56	7	0	256.554386	281.3326044	37955	19.81966739	9.7272
2008	297	12.22	0.56	9.01	0	359.8245614	390.2720612	37804	19.75311776	9.3178
2008	298	13.89	6.67	11.9	1.540483333	290.6175439	167.6808392	37655	20.1254416	9.1503
2008	299	14.44	3.33	11.39	0.005191667	400.4912281	43.15066521	37507	20.17370305	10.3593
2008	300	16.67	3.89	13.15	0	494.9824561	364.9315329	37361	20.60217976	10.0293
2008	301	8.89	3.89	7.51	0.007791667	161.8526316	251.9830713	37215	21.05822214	10.001
2008	302	6.67	1.11	5.14	0.18833125	153.4105263	98.94246176	37071	21.3758545	9.0065
2008	303	4.44	-0.56	3.07	0.001297917	122.6666667	103.6515923	36928	21.60040081	7.5495
2008	304	8.89	-0.56	6.29	0	257.7403509	369.0951695	36787	21.50973221	7.5788
2008	305	18.33	3.33	14.21	0	592.1684211	351.7090076	36647	21.39162855	8.0297
2008	306	17.78	4.44	14.11	0	540.7368421	231.4742118	36509	21.28798755	9.3506
2008	307	9.44	3.89	7.92	0	182.1403509	187.2377103	36372	21.21137585	9.267
2008	308	14.44	7.22	12.46	0	300.322807	258.375031	36237	21.09366709	9.4305
2008	309	13.89	8.89	12.51	0.01	218.3298246	100.4017395	36103	20.94091315	9.8881
2008	310	18.33	8.89	15.74	0	454.7368421	257.0485669	35971	20.85558737	10.8131
2008	311	20	10	17.25	0	519.4947368	242.4719176	35841	20.77645361	11.3973
2008	312	21.67	9.44	18.31	0.24	645.9719298	308.8003248	35713	20.89056098	12.0554
2008	313	12.78	4.44	10.49	0	301.1508772	134.4137582	35586	21.22250181	11.2757
2008	314	8.33	1.67	6.5	0	195.6070175	146.6516271	35462	21.32075207	9.6831
2008	315	3.89	0.56	2.97	0	84.36491228	155.6687512	35339	21.51220076	8.4617
2008	316	4.44	0	3.22	0	111.4736842	123.6229308	35219	21.68176769	7.7012
2008	317	10	0.56	7.4	1.51	276.2175439	228.2574359	35100	22.03983649	7.9391
2008	318	8.89	5.56	7.97	0	115.0035088	38.74857078	34984	22.60277153	7.961
2008	319	11.67	8.33	10.75	0.59	135.8245614	94.88379696	34870	22.58041667	8.9308
2008	320	13.33	2.22	10.28	0.05	374.4701754	41.89573923	34759	22.38543594	9.756
2008	321	5	0.56	3.78	0.04	115.4596491	114.7539612	34649	22.26148408	8.1237
2008	322	2.78	-3.89	0.94	0	137.4175439	119.3574779	34542	22.15724822	6.8693
2008	323	-0.56	-6.67	-2.24	0	103.4105263	215.6341251	34438	22.00471401	5.5552
2008	324	0	-5.56	-1.53	0	99.83157895	222.922472	34336	21.92191286	4.5694
2008	325	3.89	-2.78	2.06	0.15	147.677193	126.9326752	34237	21.81137078	4.9242
2008	326	-1.11	-6.67	-2.64	0	92.70175439	141.2762742	34140	21.7310152	4.5856
2008	327	-1.67	-6.11	-2.89	0	74.85614035	179.2016683	34046	22.26133518	4.0191
2008	328	2.78	-6.67	0.18	0.68	173.9508772	289.8008482	33954	22.72045876	3.8059
2008	329	2.22	-5.56	0.08	0.94	147.7754386	81.5214079	33866	23.19639793	3.2885
2008	330	3.89	0	2.82	0.05	96.26666667	162.728952	33780	22.94716874	3.7293
2008	331	1.67	0	1.21	0	39.15789474	90.9198445	33697	22.70867931	3.8564
2008	332	5.56	-2.22	3.42	0	183.4526316	263.3917544	33618	22.47906489	4.0658
2008	333	5.56	-1.11	3.72	0	164.3087719	229.6326884	33541	22.70516816	4.0758
2008	334	5.56	-3.33	3.11	0.73	200.645614	268.2057549	33467	22.82885216	4.0738
2008	335	3.89	0	2.82	0.41	96.26666667	25.89807468	33397	22.97833638	3.6505
2008	336	6.11	0	4.43	0	159.4596491	120.3406043	33329	23.2976136	4.1021
2008	337	2.22	-5	0.24	0	140.3578947	121.3659402	33265	23.4388375	3.9169
2008	338	6.67	-4.44	3.61	0	246.7719298	271.7797253	33204	23.01065397	3.4506
2008	339	7.78	-3.89	4.57	0	272.2807018	29.142883	33146	22.69438209	4.0333
2008	340	-1.67	-8.33	-3.5	0	102.2736842	141.4201015	33092	22.31962654	3.1183
2008	341	-1.67	-8.33	-3.5	0.03	102.2736842	134.0420084	33041	22.64600537	2.0594
2008	342	-3.89	-9.44	-5.42	0	76.76491228	144.8592732	32993	23.61877915	1.8897
2008	343	-1.11	-8.89	-3.25	0	118.2526316	78.60147501	32949	23.04778202	1.3129
2008	344	11.67	-2.22	7.85	1.47	380.6105263	176.9446656	32909	23.64374062	1.8165
2008	345	12.22	-1.11	8.56	1.365	386.2526316	30.39005841	32872	23.67377327	4.3062
2008	346	1.67	-1.11	0.9	1.145	62.37894737	20.18929289	32838	23.528238	3.7416
2008	347	1.67	-6.11	-0.47	0	142.4561404	76.9372714	32808	23.23495418	3.2038
2008	348	-0.56	-6.11	-2.08	0	96.21052632	241.9216033	32782	22.9996809	2.2936
2008	349	9.44	-1.67	6.39	0.265	294.477193	251.2587381	32759	22.67936644	2.3401
2008	350	13.89	-1.67	9.61	0.315	459.7824561	70.74098962	32740	22.38615771	3.6575
2008	351	1.11	-2.22	0.19	1.07	70.59649123	68.16776678	32724	22.22030447	3.4997
2008	352	3.33	-0.56	2.26	0	92.91929825	40.82190022	32712	22.15285834	3.1308
2008	353	2.22	-0.56	1.46	3.18	64.64561404	88.91077544	32704	22.18927341	3.1132
2008	354	5.56	-4.44	2.81	0.02	216	15.4468944	32699	22.09998894	2.4832
2008	355	-2.78	-5.56	-3.54	0.12	46.58245614	137.640712	32698	22.51182678	2.1321
2008	356	1.67	-15.56	-3.07	0	214.0280702	182.3404789	32701	22.76086399	1.796
2008	357	-7.78	-14.44	-9.61	0	66.78596491	261.2881035	32707	22.39747028	0.8153
2008	358	1.11	-11.11	-2.25	3.335	179.6561404	149.4164502	32717	22.51032983	0.1766
2008	359	9.44	-0.56	6.69	0.315	276.5824561	44.81274633	32731	22.41581265	0.137
2008	360	0	-5.56	-1.53	0	99.83157895	173.5758649	32749	22.27295412	0.3761
2008	361	2.78	-4.44	0.79	0.36	145.5578947	183.3182179	32770	22.29855743	0.714
2008	362	9.44	0	6.85	0.01	266.8421053	127.746539	32794	22.1583214	1.0151
2008	363	12.22	0	8.86	0	369.1719298	142.5615136	32822	22.04741384	1.817
2008	364	6.67	-1.11	4.53	0	196.8912281	258.5131795	32854	21.92065358	2.1305
2008	365	3.89	-1.11	2.51	0.08	118.4	262.1079996	32889	21.76048234	2.1557
2009	1	1.67	-9.44	-1.39	0	264.1864349	155.0455539	32928	22.17946299	0.8682
2009	2	-1.67	-9.44	-3.81	0	252.0662643	277.2813078	32971	22.18998242	0.8736
2009	3	5.56	-5.56	2.5	0	338.4527851	154.4734834	33017	22.08622668	0.8165
2009	4	1.11	-7.78	-1.33	0	169.1340428	250.4367628	33066	21.92476808	0.6463
2009	5	3.89	-7.22	0.83	0.01	266.6382496	130.8097467	33119	21.81717711	1.4143
2009	6	3.89	-3.33	1.9	0.44	227.4430348	186.7836925	33175	21.6935983	1.0299
2009	7	0	-3.33	-0.92	1.83	50.3711006	35.42534754	33234	21.93605212	1.1288
2009	8	2.22	-3.33	0.69	0	165.2672999	35.77024267	33296	21.65841842	0.9722
2009	9	-2.22	-5.56	-3.14	0	139.4944835	142.8110425	33362	21.37118142	0.5973
2009	10	-2.78	-5.56	-3.54	0.955	49.44759858	211.1762735	33431	21.20233859	0.4074
2009	11	-0.56	-5.56	-1.93	0.095	108.3172789	52.56209892	33503	21.14492438	0.4396
2009	12	-3.33	-6.11	-4.1	0	119.1433274	124.0813008	33579	21.16626903	0.6349
2009	13	-0.56	-6.67	-2.24	0	110.799546	187.169623	33657	21.13380664	0.7046
2009	14	0.56	-12.78	-3.11	0.085	98.79150683	92.89187267	33738	21.16844754	0.4926
2009	15	-7.78	-13.33	-9.31	0.165	98.60923509	191.2382177	33822	21.27185806	0.2718
2009	16	-8.89	-17.22	-11.18	0	94.76454865	195.8472972	33909	21.58619374	-0.0056
2009	17	-13.33	-18.89	-14.86	0	68.80729022	272.8107297	33999	21.62463174	-0.0766
2009	18	-6.67	-19.44	-10.18	0.23	44.73166455	213.4915229	34092	21.53842951	-0.0736
2009	19	-3.33	-7.78	-4.56	0.04	102.9768209	115.1936116	34187	21.35381756	-0.191
2009	20	-4.44	-12.22	-6.58	0	118.3555004	198.6965145	34285	21.04051341	0.0101
2009	21	-3.89	-12.78	-6.33	0	155.8506765	153.4316873	34386	20.98321684	0.0376
2009	22	-4.44	-12.78	-6.74	0	150.5775132	254.0363014	34489	22.36015698	0.2286
2009	23	4.44	-5.56	1.69	0	233.9671771	303.8885966	34595	22.62825862	0.3012
2009	24	10.56	-2.78	6.89	0.00445	438.592215	286.1560672	34703	22.92368216	-0.0538
2009	25	-1.11	-12.78	-4.32	0.018333333	108.7026327	191.2816683	34814	23.11114522	-0.3811
2009	26	-7.22	-12.78	-8.75	0.000683333	107.2715216	133.0920804	34926	23.14520417	-0.4186
2009	27	-2.78	-10.56	-4.92	0.009583333	153.6160651	253.7081217	35042	22.9529652	-0.5854
2009	28	-2.78	-6.67	-3.85	1.365966667	67.40931715	137.0974146	35159	22.82587441	-0.6001
2009	29	1.67	-8.33	-1.08	0.008666667	211.3752309	56.87618346	35278	22.7284652	-0.505
2009	30	-0.56	-8.33	-2.69	0.087966667	154.5088648	275.4467797	35400	22.59091624	-0.6485
2009	31	0	-11.11	-3.06	0.001216667	203.5899768	196.1663711	35523	22.45036438	-0.5113
2009	32	-1.11	-11.67	-4.01	0	164.3049002	324.5517125	35649	22.41120597	-0.3901
2009	33	9.44	-1.11	6.54	0.060466667	152.2796808	331.9759895	35776	22.77665833	-0.4323
2009	34	3.89	-4.44	1.6	0.004133333	147.6905964	70.00790976	35905	22.89546407	-0.3958
2009	35	1.67	-8.89	-1.24	0.09065	176.1774139	253.5008048	36036	22.71567499	-0.4389
2009	36	-3.89	-16.11	-7.25	0.001	147.1429927	217.5034422	36169	22.58318397	-0.4694
2009	37	-7.22	-15.56	-9.51	0	139.7014676	362.013222	36303	22.5225352	-0.4214
2009	38	3.33	-8.33	0.12	0	237.8874798	360.4623765	36440	22.49321879	-0.2807
2009	39	12.78	-2.78	8.5	0.000316667	419.5200398	217.6037947	36577	22.51499834	-0.5055
2009	40	10.56	-2.22	7.04	0	386.0580639	216.7615209	36716	22.46489551	-0.346
2009	41	7.22	-2.22	4.62	0.157616667	200.2813618	341.0010853	36857	22.79636528	-0.1865
2009	42	10	2.78	8.01	0.013283333	279.2561642	85.07354253	36999	23.29497742	1.6298
2009	43	16.67	5	13.46	0.499733333	600.4362025	260.6041515	37143	23.20336186	2.6489
2009	44	6.11	1.11	4.74	0.0026	318.3311801	86.93394481	37287	22.99859738	1.9113
2009	45	2.22	-0.56	1.46	0.107133333	167.2721316	72.22969038	37433	22.78871019	1.6849
2009	46	0.56	-5	-0.97	0.005033333	227.6195056	123.0332881	37581	22.6503462	1.8361
2009	47	2.22	-5.56	0.08	1.67E-05	272.1943102	351.0557396	37729	22.53220658	1.2692
2009	48	0.56	-7.78	-1.74	0	236.7528368	228.1077114	37879	22.5585127	0.9091
2009	49	3.33	-7.78	0.28	0.480608333	161.2265878	385.4023245	38029	22.83862154	0.7707
2009	50	4.44	-1.67	2.76	0.280633333	194.6061353	38.35342186	38181	23.32011048	0.8041
2009	51	2.22	-8.89	-0.83	0.008408333	251.1921475	190.9096885	38334	23.63175105	0.3692
2009	52	-3.89	-8.89	-5.26	0	223.1231013	225.5153169	38487	23.27081653	0.1615
2009	53	3.33	-7.22	0.43	0.093208333	260.7307378	391.3288132	38642	23.20090016	0.1367
2009	54	0	-6.67	-1.83	0.049475	229.8927661	202.9565957	38798	23.06301801	0.1201
2009	55	-3.89	-11.11	-5.87	0	188.3726894	209.4387226	38954	22.8886781	-0.1068
2009	56	-0.56	-11.11	-3.46	0	249.314548	429.0285597	39111	22.83240089	0.1363
2009	57	8.33	-7.22	4.06	0.015366667	428.006074	414.2311747	39269	22.88077969	1.2272
2009	58	12.78	2.78	10.03	0.744733333	279.7922266	197.8326063	39428	23.07137249	2.1248
2009	59	12.78	-3.89	8.19	0.000133333	487.0341169	86.0709829	39587	23.55390349	2.1038
2009	60	1.67	-4.44	-0.01	0	345.0601914	354.4487634	39747	23.39592809	1.9404
2009	61	3.89	-8.33	0.53	3.33E-05	354.7241505	289.1103315	39907	23.2544065	1.1941
2009	62	-5.56	-13.89	-7.85	0	201.4583111	340.3241739	40068	23.10729171	0.3818
2009	63	-2.22	-13.89	-5.43	0	249.8397379	454.3288839	40230	22.99041585	0.1015
2009	64	2.78	-11.11	-1.04	0	353.4684994	460.430506	40392	22.78910004	0.6971
2009	65	11.67	-7.22	6.47	0	543.6752737	439.2025151	40555	22.79581935	2.9808
2009	66	20	8.33	16.79	0.004733333	744.2677937	296.3650474	40718	22.75500573	5.1504
2009	67	21.67	12.78	19.22	0.840566667	457.0879083	174.0303801	40882	22.80008334	6.1851
2009	68	15	6.11	12.56	0.508116667	356.2603444	44.59771963	41046	23.12323393	5.3801
2009	69	10	1.67	7.71	0.06885	242.4558126	118.2215482	41210	23.48976728	4.3036
2009	70	7.22	2.22	5.85	0.024183333	404.9297895	78.0172568	41375	23.55980723	5.092
2009	71	17.22	-2.78	11.72	3.33E-05	795.2153365	390.1841358	41540	23.56965317	3.8902
2009	72	2.78	-5	0.64	0	319.2155879	317.3720177	41705	23.53297294	3.5069
2009	73	6.67	-5	3.46	0	326.2932209	466.8058276	41870	23.31452987	3.8691
2009	74	11.11	-1.11	7.75	0	333.8742675	389.5550718	42036	23.35448702	5.0317
2009	75	13.89	2.22	10.68	0.651216667	274.9745386	392.044595	42202	23.5001205	5.1582
2009	76	11.67	3.33	9.38	0.127316667	267.5401823	124.9391758	42368	23.99252945	5.4376
2009	77	12.78	2.78	10.03	0	448.9978894	256.0915503	42534	23.94119543	6.0728
2009	78	22.78	3.89	17.58	0.003683333	1053.709672	434.3761973	42701	23.7233129	6.6841
2009	79	12.78	-2.22	8.65	0.004033333	629.3741589	321.2826183	42867	23.69080063	4.8348
2009	80	6.67	-6.11	3.15	0	449.3988361	337.8049172	43033	23.53573887	3.9343
2009	81	8.33	-6.11	4.36	0	434.1245019	406.4468056	43200	23.26522831	4.245
2009	82	12.22	-3.33	7.94	0	772.7372812	355.0930683	43366	23.45433323	4.2514
2009	83	7.78	-6.67	3.81	0	602.8603107	528.8867755	43533	23.3023441	3.861
2009	84	8.89	-6.11	4.76	0.000116667	618.5631465	512.8243438	43699	23.1888728	3.8017
2009	85	10	2.22	7.86	1.215633333	109.8442733	258.5353699	43865	23.28375094	4.31
2009	86	5.56	1.67	4.49	0.001033333	272.2866165	45.54219658	44032	23.39861746	5.1329
2009	87	14.44	2.78	11.24	0.335508333	168.8633258	400.4028463	44198	23.39489714	6.0458
2009	88	12.22	7.22	10.85	0.7059	227.6366565	89.91249465	44363	23.39383802	6.4572
2009	89	10.56	1.11	7.96	0.068941667	343.3438813	145.1713041	44529	23.3474026	5.2671
2009	90	3.89	0	2.82	0	353.6276041	159.5307081	44695	23.242657	5.7688
2009	91	16.11	0.56	11.83	0.710925	256.8713881	507.5134195	44860	23.2695899	6.0403
2009	92	8.89	6.11	8.13	0.019375	314.3319836	105.789628	45025	23.64928864	7.4457
2009	93	18.89	6.67	15.53	1.815816667	278.580352	461.6348971	45190	23.72142755	8.4953
2009	94	15.56	3.33	12.19	0.02295	640.2511348	79.33589099	45354	23.9673188	7.5616
2009	95	8.89	2.22	7.06	0	645.7900798	374.2813173	45518	24.01531925	7.4396
2009	96	18.89	2.78	14.46	0.451816667	490.0568742	525.2196537	45681	24.15913823	7.7293
2009	97	12.22	-1.11	8.56	0.01775	442.7006644	176.3503981	45845	24.39710289	5.8463
2009	98	3.89	-0.56	2.67	0.001783333	422.2031368	243.2642859	46007	24.08115334	5.631
2009	99	10	-0.56	7.1	0	604.6907822	351.3453616	46169	23.92499442	5.9043
2009	100	15	1.11	11.18	0.184116667	399.0540823	542.5718849	46331	23.70708046	6.121
2009	101	9.44	3.89	7.92	0.205133333	503.8963151	102.5447389	46492	23.50166272	7.1072
2009	102	12.78	-1.11	8.96	0	778.1438675	444.5026901	46653	23.31480148	6.4138
2009	103	10	-2.78	6.49	0.000966667	547.4747602	572.1304552	46813	23.17148982	5.9687
2009	104	12.78	-1.11	8.96	1.050633333	119.0061886	368.7307332	46972	23.60886511	6.1137
2009	105	7.78	5	7.01	1.37	116.3689887	46.34452908	47131	23.99655608	6.2345
2009	106	7.78	-0.56	5.49	0.000516667	416.5154791	127.4696864	47289	23.96047257	6.8523
2009	107	18.33	1.11	13.6	0	1103.46758	564.2099018	47446	24.18085201	7.7135
2009	108	21.11	4.44	16.53	0	1361.317267	569.9938238	47602	23.75348952	8.6947
2009	109	23.33	10.56	19.82	0.003033333	1347.874024	541.9207463	47758	23.49585469	9.5024
2009	110	20	5	15.88	0.924775	348.6805386	298.7421523	47912	23.40320182	8.2249
2009	111	7.78	4.44	6.86	0.536141667	175.0739881	73.9256231	48066	23.38099519	8.2322
2009	112	17.22	5	13.86	0.023133333	482.297071	306.7959311	48219	23.16568745	7.518
2009	113	11.11	2.22	8.67	0.143816667	464.8843314	330.8135415	48370	22.96826846	7.5293
2009	114	12.78	3.33	10.18	0.030466667	606.7031419	394.161765	48521	22.65882298	8.2465
2009	115	23.89	5	18.69	0	1212.598359	434.9593392	48671	22.44086892	10.3027
2009	116	30	13.89	25.57	0	2066.634528	432.1242549	48819	22.12472093	11.7326
2009	117	31.11	15	26.68	0	2221.143246	546.1681371	48966	22.12774053	12.8846
2009	118	32.22	16.67	27.94	0	1939.849546	541.3218154	49112	22.12486442	13.2897
2009	119	29.44	6.67	23.18	0.0001	1225.275917	493.4652334	49257	23.09723839	12.4014
2009	120	19.44	7.22	16.08	0.090716667	512.5185758	402.8471893	49401	22.7078702	11.3804
2009	121	17.22	11.11	15.54	0.344066667	329.7594936	118.7372182	49543	22.5002079	11.8306
2009	122	21.67	11.11	18.76	0.6231	726.5510594	233.1827788	49683	22.51505963	12.0288
2009	123	17.78	8.33	15.18	0.264616667	280.056739	326.1133011	49823	22.26062519	10.9469
2009	124	14.44	8.33	12.76	1.5003	146.8725817	177.5458567	49960	22.75394447	10.7263
2009	125	11.11	9.44	10.65	0.673058333	196.1258044	78.52561083	50096	23.29396117	10.6232
2009	126	13.33	9.44	12.26	0.68195	211.5938044	127.9462881	50231	23.48656641	11.2093
2009	127	18.89	11.11	16.75	0.897275	522.6763283	230.7450906	50363	23.63576803	12.1529
2009	128	21.11	11.11	18.36	0.219233333	366.700773	325.696267	50495	23.28386214	12.1224
2009	129	22.22	12.78	19.62	0.023866667	757.6694342	263.7159845	50624	23.05545998	12.9286
2009	130	24.44	8.89	20.17	0.001066667	1085.621956	307.7087545	50751	23.66985804	12.1858
2009	131	15.56	6.11	12.96	0.02545	368.7424103	261.8315742	50877	23.35885018	10.9855
2009	132	15.56	3.89	12.35	0.008583333	620.5911312	217.8732941	51000	23.21244766	10.7452
2009	133	16.67	4.44	13.31	0	702.4807696	483.4381675	51122	23.58904015	10.9308
2009	134	21.67	7.22	17.69	1.647083333	282.4456908	479.5092992	51241	23.69139836	11.8667
2009	135	20	11.11	17.56	0.424166667	606.2392927	242.6118813	51358	23.44577821	12.8853
2009	136	24.44	11.11	20.78	1.875883333	472.1160068	503.6610067	51473	23.10786831	13.7698
2009	137	26.11	7.78	21.07	0.455283333	1279.800578	327.6518823	51586	22.77601685	13.1512
2009	138	15	3.89	11.94	0	799.4811004	499.9752597	51697	22.79601305	11.5028
2009	139	15.56	2.78	12.04	0	674.835982	604.3722614	51805	23.62137374	11.1387
2009	140	22.22	5.56	17.64	0	1029.752062	598.2218455	51910	23.41448915	11.8821
2009	141	28.33	11.11	23.6	0	1433.767087	585.7771946	52014	24.16819198	12.6162
2009	142	29.44	13.89	25.17	0.00005	1243.95323	597.8737192	52114	24.06540262	13.244
2009	143	28.89	15.56	25.22	0.097833333	798.0652995	447.9868996	52212	23.49065795	13.8332
2009	144	27.78	15.56	24.42	0.219808333	616.3887921	352.2021679	52308	23.04505275	14.1957
2009	145	29.44	16.11	25.78	0.215925	1196.570604	385.4783015	52400	22.7490689	14.7185
2009	146	26.11	12.22	22.29	0.580183333	513.7200429	532.2553629	52490	22.36636313	13.3624
2009	147	12.78	9.44	11.86	0.1383	127.795897	92.49831675	52577	22.26787615	12.5143
2009	148	16.67	10.56	14.99	0.526358333	156.1560378	162.9570088	52662	21.98269598	13.5048
2009	149	22.78	16.67	21.1	1.356208333	345.4430767	231.3654703	52743	21.94317022	14.3352
2009	150	20	12.78	18.01	8.33E-05	761.5117931	184.9645217	52821	21.67548164	13.829
2009	151	21.67	10	18.46	0	917.7313413	544.0036298	52896	21.55677402	13.2336
2009	152	21.11	5	16.68	0.002316667	748.3944377	546.4939115	52969	21.61910865	12.6422
2009	153	22.78	8.33	18.81	0.405066667	391.0654887	477.6434632	53038	21.99514206	13.566
2009	154	23.89	15.56	21.6	1.566466667	162.8550763	323.5355818	53103	22.32002873	13.6361
2009	155	16.67	11.11	15.14	0.04065	320.1857322	54.65613362	53166	22.16858851	13.1712
2009	156	17.78	11.11	15.94	0.610183333	142.9780977	217.9634382	53225	21.87015586	13.0049
2009	157	14.44	12.22	13.83	0.05565	457.0342452	73.79384771	53281	21.4642468	13.7396
2009	158	24.44	12.78	21.24	0	781.4197036	556.5243934	53334	20.96811356	14.2466
2009	159	27.22	15.56	24.01	1.172641667	665.3370689	531.5557575	53383	20.62008239	15.1334
2009	160	27.78	18.33	25.18	0.816958333	607.6812536	390.751633	53429	20.5951309	16.0913
2009	161	28.33	16.67	25.12	0.053866667	534.0691892	371.963008	53471	20.17327716	15.9572
2009	162	25	17.78	23.01	0.770391667	246.4732931	323.1155111	53510	20.25138378	15.8362
2009	163	22.22	17.78	21	0.602158333	384.3381698	157.7462929	53546	21.11678568	16.1453
2009	164	23.89	16.11	21.75	0	696.7668218	266.0981391	53577	20.70612788	15.9931
2009	165	25	11.11	21.18	0.000166667	901.0650168	364.0599933	53606	20.50327484	15.5474
2009	166	25	12.78	21.64	0	948.8202684	561.4360619	53630	20.07214883	15.2917
2009	167	26.67	15	23.46	0	568.0934847	550.5218356	53651	19.33141789	15.0982
2009	168	22.22	15.56	20.39	1.91045	280.2558962	188	53669	19.49780963	14.6724
2009	169	16.67	13.89	15.9	0.416083333	268.2314446	135.68088	53682	20.28153438	14.7907
2009	170	21.67	15.56	19.99	0	551.8582417	214.8344291	53693	20.00571625	15.3275
2009	171	24.44	16.11	22.15	3.7643	322.3490787	340.8653606	53699	20.06598675	16.0902
2009	172	24.44	16.67	22.31	0.360316667	646.0100973	146.2408476	53702	19.87175553	16.3699
2009	173	23.89	15.56	21.6	1.67E-05	828.393316	276.2871455	53701	19.61923028	16.6076
2009	174	27.22	15.56	24.01	0	1047.297317	400.843899	53696	19.73584618	16.7196
2009	175	27.22	14.44	23.71	0.0001	1122.611537	558.2149084	53688	20.09956079	16.7855
2009	176	29.44	16.11	25.78	0	996.8158224	575.9127916	53676	20.24872227	16.9931
2009	177	30.56	18.89	27.35	0.1578	778.0274218	507.4936546	53661	20.37412478	17.5272
2009	178	26.67	15.56	23.61	0	921.1815165	403.7957905	53641	19.99365747	17.0959
2009	179	26.67	15.56	23.61	0.036816667	359.5379371	491.8327086	53619	19.30129853	16.3001
2009	180	21.11	13.89	19.12	0.392533333	571.5133907	116.2824116	53592	19.39547845	16.464
2009	181	26.11	15.56	23.21	1.373766667	317.4763943	487.6221388	53562	20.26207581	16.434
2009	182	22.78	13.89	20.33	0.00705	384.479247	309.9693998	53529	20.81627508	16.2277
2009	183	24.44	15	21.85	1.606516667	292.929466	338.1314988	53491	21.35063556	16.418
2009	184	22.22	15.56	20.39	0.00525	508.6422429	242.0939926	53451	21.12508818	16.2641
2009	185	22.22	15	20.24	0	843.0129499	313.2517086	53407	20.78280257	16.4387
2009	186	23.33	11.11	19.97	0	777.5442578	469.425514	53359	20.41268876	15.9305
2009	187	23.89	12.22	20.68	0	853.5576772	547.6865574	53308	20.1646587	15.7448
2009	188	27.22	13.89	23.56	0	1176.476636	523.280993	53254	19.87389543	15.9683
2009	189	26.11	11.67	22.14	0	808.670287	512.0840101	53196	19.60013228	15.5119
2009	190	22.78	12.78	20.03	0	719.4379253	403.718453	53135	19.30850678	15.603
2009	191	26.11	13.89	22.75	0	704.8211986	450.6709691	53071	19.10728195	15.794
2009	192	26.11	16.67	23.51	1.671016667	447.6598914	412.1833069	53004	18.8729945	16.3551
2009	193	25.56	17.22	23.26	0.033116667	901.6685182	259.7328699	52933	19.27883774	16.8198
2009	194	25	14.44	22.1	0.000566667	1029.287788	547.7308551	52860	19.50736038	16.1425
2009	195	24.44	11.11	20.78	0.017533333	973.6450359	547.9027907	52783	19.84832057	15.3995394
2009	196	25	11.11	21.18	0.000616667	832.3341124	585.0799195	52703	20.11300264	15.339783
2009	197	27.78	13.33	23.81	0.390866667	986.6266601	537.9431965	52620	19.72582079	17.4479
2009	198	30	18.33	26.79	0.475958333	450.5324709	469.2875036	52535	19.22125865	16.4506
2009	199	22.78	13.89	20.33	0.791058333	540.2532892	156.5801205	52446	18.74100977	16.1681
2009	200	20.56	13.33	18.57	0.0065	532.8747459	291.0120141	52355	18.35495229	15.8723
2009	201	23.89	14.44	21.29	0	675.0930108	439.14927	52261	18.09115188	15.7572
2009	202	26.11	15.56	23.21	0.097	693.6484257	380.9887854	52164	17.8342681	16.471533
2009	203	25	15.56	22.4	0.500133333	372.1661505	389.7421492	52065	17.62258239	16.5973836
2009	204	25	16.67	22.71	2.318016667	320.5875517	253.5307815	51963	17.41749587	17.354298
2009	205	25.56	17.22	23.26	0.1648	532.685326	273.2542134	51858	17.57845916	17.4892026
2009	206	26.11	15	23.06	0.383116667	481.6771529	418.1852331	51751	17.80631612	17.105313
2009	207	27.78	16.67	24.72	0.291816667	476.1631711	384.4510476	51642	17.51945946	17.4747162
2009	208	26.11	18.33	23.97	0	732.9878967	324.7343295	51530	17.3748279	17.5018782
2009	209	27.78	17.22	24.88	0	788.7211924	458.2545462	51417	17.04024202	17.5996614
2009	210	28.89	18.33	25.99	1.169833333	256.614042	470.5817154	51300	16.76634203	17.6702826
2009	211	22.78	18.33	21.56	0.069583333	508.5388685	163.5237584	51182	17.93105471	18.0025644
2009	212	27.78	19.44	25.49	1.46685	246.626154	365.4246602	51062	17.76150284	18.2950086
2009	213	22.22	16.67	20.69	0.0032	528.009103	122.565441	50939	17.66913257	18.2289144
2009	214	27.22	17.22	24.47	0.120166667	503.28073	506.6144249	50815	17.49394279	18.2950086
2009	215	25.56	14.44	22.5	0	667.5599216	272.2438644	50688	17.38839763	17.8142412
2009	216	25.56	15.56	22.81	0	624.4665166	507.4447785	50560	16.97010199	17.612337
2009	217	28.33	16.67	25.12	0	756.4169314	494.616855	50430	16.60582683	17.9419026
2009	218	26.11	12.78	22.44	0	846.0942866	320.9862619	50298	16.12501405	17.2338798
2009	219	25	12.22	21.49	0	668.5008427	428.4242485	50164	15.7752682	16.5702216
2009	220	24.44	13.89	21.54	0.027166667	634.6702583	421.8924624	50029	15.57411772	16.7784636
2009	221	26.11	16.11	23.36	0.42765	442.6475989	406.1789064	49892	15.48806136	17.630445
2009	222	29.44	20	26.85	0.216141667	806.3058002	245.3757889	49754	15.39238004	18.7069656
2009	223	32.22	20	28.86	0.231791667	614.5217081	433.2942315	49614	15.19877637	18.8328162
2009	224	27.78	18.33	25.18	1.749625	449.6914643	273.9751375	49472	15.07600182	18.5068722
2009	225	26.67	16.67	23.92	0.089208333	530.6079843	277.6136834	49330	15.47774493	18.2334414
2009	226	26.67	17.78	24.22	0	626.9497425	466.979425	49186	15.57856448	18.3493326
2009	227	28.89	17.78	25.83	0	794.0750932	471.8079119	49040	15.54616526	18.667128
2009	228	30.56	19.44	27.5	0	901.5865104	517.4930666	48894	15.45802737	18.8654106
2009	229	31.11	20	28.06	0	1105.731535	512.0612768	48746	15.27556367	19.0220448
2009	230	32.78	20.56	29.42	0.431825	611.56991	520.5570508	48597	15.91260779	19.0546392
2009	231	30.56	20.56	27.81	0.015741667	676.9374703	353.0740618	48446	15.44641936	19.359759
2009	232	29.44	20	26.85	0	749.152435	335.0939435	48295	15.48074654	19.4014074
2009	233	29.44	20.56	27	0.485283333	492.655685	360.8208255	48143	15.03612859	19.6368114
2009	234	26.67	18.89	24.53	0.001233333	559.8637232	286.8407377	47990	14.61766827	19.3425564
2009	235	26.67	17.78	24.22	0	846.3101499	300.8905427	47836	15.05753556	19.3619
2009	236	25.56	14.44	22.5	0	576.5525923	432.6559426	47681	15.29334039	18.0596046
2009	237	25.56	14.44	22.5	0	667.7699726	383.9634929	47525	15.28136316	17.8260114
2009	238	27.22	16.11	24.17	0	897.3468059	508.4194604	47368	15.55803166	17.9527674
2009	239	28.89	17.22	25.68	0.02615	534.4074612	462.4241898	47210	15.56268747	18.1908876
2009	240	19.44	16.67	18.68	0.91275	219.3969411	128.512093	47052	16.53656766	17.7490524
2009	241	20	16.67	19.08	2.108033333	330.555097	72.7311539	46893	16.85910327	17.9581998
2009	242	26.11	14.44	22.9	0	761.1388359	320.4080541	46734	16.72461756	17.3280414
2009	243	22.22	11.11	19.17	0	540.8998917	480.1938247	46573	16.51112114	16.163697
2009	244	18.89	7.78	15.83	3.33E-05	474.5543285	398.0785771	46413	16.06885891	15.1206762
2009	245	20.56	8.33	17.19	0	529.277754	538.6507319	46251	16.05968055	14.8345698
2009	246	23.33	10	19.67	0	586.9153305	521.0623576	46089	16.43556558	14.8753128
2009	247	23.89	10.56	20.22	0	627.404906	512.5118558	45927	16.45494393	15.1514598
2009	248	25	12.22	21.49	0	667.4029684	508.0795167	45764	16.39346556	15.4783092
2009	249	25.56	12.78	22.04	0	723.5662468	474.4047149	45600	16.19145059	15.5607006
2009	250	25	13.89	21.94	0.009341667	385.7817956	454.5401105	45437	16.22831469	15.8984148
2009	251	20	17.22	19.24	0.003408333	409.4359562	150.4898834	45272	16.19540543	16.0478058
2009	252	22.22	16.11	20.54	0.000916667	474.4212481	208.9722001	45108	16.38081566	16.1066568
2009	253	22.78	15	20.64	0.013333333	708.5729684	236.9511826	44943	17.1156729	15.9536442
2009	254	20	12.78	18.01	2.071841667	218.3804631	440.6224485	44778	17.03263576	14.9386908
2009	255	15	12.22	14.24	0.056508333	192.5441047	62.22258086	44613	16.95532816	14.9712852
2009	256	19.44	13.89	17.92	0	587.8569736	106.9569825	44447	16.99964029	15.5425926
2009	257	24.44	15	21.85	0	598.2023368	477.8696958	44281	16.9910494	15.9337254
2009	258	23.89	13.89	21.14	0.00035	456.242422	328.4017228	44115	17.41797276	15.724578
2009	259	24.44	11.67	20.93	0	743.9274831	297.3866755	43949	18.77868005	15.5090928
2009	260	19.44	11.67	17.31	0.010241667	315.1932069	387.5532056	43783	19.43652982	15.054582
2009	261	16.11	13.89	15.5	0.014991667	481.6589997	79.71882523	43617	19.73194374	15.1143384
2009	262	23.33	10	19.67	0	668.9773209	431.1204143	43450	19.52418794	14.6571114
2009	263	20	5.56	16.03	0	394.0091204	511.4600545	43284	19.37703273	14.7863
2009	264	23.33	6.11	18.6	0	470.319669	419.366955	43117	19.34203359	15.0294
2009	265	23.89	14.44	21.29	0.077166667	413.0755619	425.1073549	42951	19.12903086	15.8821
2009	266	23.33	18.33	21.96	0.454383333	323.0048201	146.6952599	42784	19.09501661	16.9487
2009	267	26.11	17.78	23.82	0	550.8505766	287.909733	42618	21.5978479	17.2504
2009	268	22.78	13.33	20.18	0	766.0699265	209.8487704	42452	21.50898663	16.3835
2009	269	20	12.22	17.86	2.91225	393.1857879	423.0745637	42286	20.94874948	14.711
2009	270	14.44	11.67	13.68	1.75345	97.59836475	66.51524217	42120	20.80708884	14.4933
2009	271	16.67	12.22	15.44	0.7834	392.4936873	144.1699004	41954	21.25157559	14.0994
2009	272	20	11.11	17.56	0.0036	614.0463142	258.0364698	41788	20.28320149	13.8323
2009	273	13.89	10.56	12.97	0.002233333	474.1497003	80.00398818	41623	19.66320173	13.5465
2009	274	13.33	6.67	11.5	0	425.1628331	226.9404458	41458	20.33371516	12.5872
2009	275	12.78	3.89	10.33	0.634591667	132.6601074	243.7642458	41293	20.87794124	11.9572
2009	276	15	5	12.25	0.372508333	279.36355	215.6805174	41129	20.87857473	13.0467
2009	277	18.89	7.78	15.83	0	395.4028318	364.3781369	40964	20.84333381	12.6572
2009	278	15.56	7.78	13.42	0	431.4231722	216.5545207	40801	20.81399942	12.337
2009	279	15.56	4.44	12.5	0	370.5361453	299.5252848	40637	20.74821129	11.4619548
2009	280	17.78	5	14.26	0.267583333	564.702324	375.2800316	40474	20.77869668	12.3075984
2009	281	13.33	7.78	11.81	0	466.8655743	216.561148	40312	20.78150429	11.9653572
2009	282	18.33	8.33	15.58	1.115225	171.0742548	346.520797	40150	20.76284877	12.8038
2009	283	17.78	11.67	16.1	0.475775	390.5188521	98.41761484	39989	20.8964109	13.041
2009	284	14.44	5	11.85	0	373.7990604	209.3787285	39828	20.89300499	11.3495
2009	285	12.78	3.89	10.33	0	340.3996733	336.8411526	39667	20.81619667	10.4899
2009	286	9.44	3.89	7.92	0.005983333	283.6007623	134.8980966	39508	20.75018404	10.6875
2009	287	13.33	0	9.67	3.33E-05	252.7312396	155.3075809	39349	20.69287957	9.6134
2009	288	7.22	0.56	5.39	2.513708333	65.32204503	143.7659156	39191	20.83820708	8.0054
2009	289	3.89	-0.56	2.67	1.276416667	39.74306619	41.64829759	39033	21.5089183	6.9049
2009	290	1.67	0	1.21	0.679866667	44.46893486	105.1623624	38876	21.64428833	7.2326
2009	291	3.89	0	2.82	0.185891667	193.5736985	86.93755165	38720	21.55915006	7.8278
2009	292	10	-1.11	6.94	0	279.1027575	257.0438221	38565	21.47408121	7.7933
2009	293	12.78	0	9.26	0	396.3782907	402.2132462	38411	21.6813306	8.8069
2009	294	19.44	6.67	15.93	3.33E-05	513.2498888	342.0583407	38258	22.25390296	9.6026
2009	295	21.11	7.78	17.44	0	743.1655047	279.9480397	38106	22.15777835	10.2723
2009	296	21.67	8.33	18	0.837983333	421.5513789	314.7272296	37955	22.14504396	10.9278
2009	297	17.22	11.11	15.54	7.42895	347.2655167	117.1349064	37804	22.48890833	12.7867
2009	298	18.33	6.67	15.12	0	724.291248	136.2429425	37655	22.80183438	11.5847
2009	299	15	2.78	11.64	0	419.3229011	365.9718719	37507	22.76456538	10.4915
2009	300	15.56	3.33	12.19	0.064833333	201.9614038	343.4797248	37361	22.7133638	10.2915
2009	301	13.33	7.78	11.81	1.282408333	131.5099396	136.5894397	37215	23.25545634	11.1071
2009	302	15	11.11	13.93	4.17E-05	246.9586021	83.21016428	37071	23.0390868	11.4417
2009	303	13.33	10	12.42	0.013566667	246.492101	79.03531196	36928	22.84663272	11.4122
2009	304	14.44	11.11	13.53	0.110216667	391.4013184	58.89743659	36787	22.69643962	11.4908
2009	305	16.67	5.56	13.61	0	645.7503674	58.59573771	36647	22.69121183	10.59096
2009	306	11.67	-0.56	8.31	3.33E-05	308.9746219	300.2259717	36509	22.58118947	9.2609274
2009	307	12.78	0	9.26	0.032983333	442.227101	341.7961344	36372	23.12318916	9.00651
2009	308	12.22	-1.11	8.56	0.001616667	384.6979668	277.2042388	36237	22.86187045	8.3066358
2009	309	7.78	-1.11	5.33	0.077083333	213.3716827	194.7745617	36103	22.66469274	7.4876
2009	310	7.22	0.56	5.39	0	391.6988879	113.8939145	35971	22.53354991	7.5333
2009	311	7.78	-2.22	5.03	0	335.0895566	336.1670712	35841	22.43293527	7.166
2009	312	13.33	-2.22	9.06	0	394.3304765	306.7477949	35713	22.42617047	8.4257
2009	313	21.11	5.56	16.83	0	457.0171514	315.5840499	35586	22.54476532	8.8792
2009	314	19.44	5.56	15.62	0	543.8915295	189.9116237	35462	22.83024791	9.4463
2009	315	14.44	5.56	12	0.015083333	742.7692553	138.9815218	35339	22.76225255	9.1624
2009	316	10.56	2.22	8.26	0	635.896958	173.1909481	35219	22.59923491	8.5597
2009	317	10	2.78	8.01	6.67E-05	609.4263692	186.6418803	35100	22.61581888	9.1653
2009	318	15.56	5	12.65	0.003733333	362.9603322	271.4951978	34984	23.11904581	10.0976
2009	319	14.44	4.44	11.69	1.67E-05	298.1035457	133.4935475	34870	23.34390231	10.151
2009	320	19.44	5.56	15.62	0	734.7430277	276.6466239	34759	23.31994833	10.206
2009	321	12.78	5.56	10.79	0	794.3924701	289.2625473	34649	23.10787121	9.3817
2009	322	8.89	2.78	7.21	0	365.799792	100.9619594	34542	22.76676582	8.5
2009	323	10	4.44	8.47	1.212533333	110.5722992	173.5931529	34438	22.88886338	9.2558
2009	324	11.11	6.11	9.74	0.043433333	439.1936874	54.9111137	34336	23.08047459	9.2953
2009	325	10	5	8.62	0	315.3315028	191.1826679	34237	22.96800957	8.9125
2009	326	10.56	5	9.03	0	191.8939447	116.415993	34140	22.36045656	8.1158
2009	327	8.33	3.89	7.11	0.046891667	215.7106532	80.56611643	34046	22.88116592	8.1702
2009	328	9.44	4.44	8.07	0.679641667	79.92162581	92.74624492	33954	22.99058892	8.6631
2009	329	9.44	6.67	8.68	0.029666667	100.914755	76.33266403	33866	23.04086547	8.9151
2009	330	10.56	2.22	8.26	0.4603	98.29357923	92.60408526	33780	24.02749855	8.436
2009	331	10	2.22	7.86	0.246758333	323.7376413	140.3104727	33697	23.58902382	7.5442
2009	332	5.56	1.67	4.49	0.036091667	219.0044832	100.8761378	33618	23.32530471	6.7805
2009	333	5	0	3.62	0	273.8465278	97.60299335	33541	23.16780553	6.7122
2009	334	16.11	0.56	11.83	0.126091667	443.3355542	253.7934981	33467	22.98909339	7.6912
2009	335	11.11	-0.56	7.9	0.000958333	346.3394737	63.40611432	33397	22.26759288	6.2899
2009	336	6.11	-2.22	3.82	0.656725	74.259888	119.4484083	33329	21.96509407	5.6929
2009	337	12.78	-1.67	8.81	0.898241667	269.6985342	68.63177514	33265	22.86812981	7.0353
2009	338	11.67	2.78	9.22	0.00245	404.3970804	58.21304662	33204	22.69359864	6.4869
2009	339	5	-1.11	3.32	0.464875	103.075495	140.8872262	33146	22.56152539	5.3468832
2009	340	0.56	-3.89	-0.67	0.001691667	169.5391919	39.108425	33092	22.54325067	4.714914
2009	341	0.56	-5.56	-1.12	0.002908333	114.5965167	283.8162586	33041	22.46699508	4.4143212
2009	342	1.11	-5.56	-0.72	0.000591667	191.6584817	88.95050465	32993	22.40964707	4.4867532
2009	343	3.33	-1.11	2.11	3.267383333	93.08141013	218.1263771	32949	22.43110567	4.2676464
2009	344	6.11	-3.33	3.51	0.002883333	362.2057389	154.7091677	32909	22.36216052	3.420192
2009	345	-2.22	-10	-4.36	1.67E-05	241.5653984	166.6408798	32872	22.06605332	3.3604356
2009	346	-2.78	-9.44	-4.61	0	243.8525446	204.1721177	32838	21.96554273	2.777358
2009	347	2.22	-5.56	0.08	1.664683333	137.7923547	275.3377835	32808	21.98502689	2.8126686
2009	348	5	-0.56	3.47	0.000416667	126.5436996	51.09499115	32782	21.97308533	3.0779508
2009	349	7.78	2.78	6.4	0.1445	169.7839001	131.1490583	32759	21.83981347	3.157626
2009	350	7.78	-3.89	4.57	0.01185	351.5186021	52.82345754	32740	21.69277735	2.632494
2009	351	-1.11	-7.22	-2.79	0.001183333	194.6349855	233.9156582	32724	21.7478814	1.7049
2009	352	-1.67	-6.67	-3.04	0	190.6060358	212.0011005	32712	22.47949345	1.8341
2009	353	0	-6.67	-1.83	0.758841667	69.38089985	178.18591	32704	23.04895836	1.8054
2009	354	-4.44	-7.22	-5.21	0.020958333	141.3702265	62.00299703	32699	22.97351744	2.1292
2009	355	0	-6.11	-1.68	0.001766667	163.3830332	250.2578751	32698	22.86630161	2.2859
2009	356	0.56	-3.33	-0.51	0.00515	181.8306143	200.249656	32701	22.80607071	2.3044
2009	357	1.11	-9.44	-1.79	0	198.3102232	114.6239031	32707	22.52963722	1.9884
2009	358	-1.67	-9.44	-3.81	0	130.5850733	276.4927713	32717	22.51449706	1.845
2009	359	0	-5.56	-1.53	0.436566667	66.77951248	271.6298005	32731	22.79213501	1.9172
2009	360	6.11	-1.67	3.97	2.204083333	54.83178188	43.00454976	32749	24.63847094	2.1195
2009	361	6.67	-2.78	4.07	0.003083333	160.2968077	50.7335978	32770	24.06224623	2.3653
2009	362	5	-2.78	2.86	0.011341667	256.0515326	196.5332378	32794	23.34507801	1.8762
2009	363	-2.22	-7.78	-3.75	0.049575	202.1849359	131.618122	32822	23.04232772	1.173
2009	364	-4.44	-9.44	-5.82	0	146.7228171	227.6367566	32854	22.77840424	0.7624
2009	365	-1.67	-9.44	-3.81	0.426108333	66.96507975	174.9951656	32889	22.4913887	0.741
2010	1	0	-3.89	-1.07	0.021008333	111.5198336	85.07561953	32928	22.36788531	1.0163
2010	2	2.78	-7.78	-0.12	0.079366667	216.0043044	110.3866428	32971	22.20611061	0.9216
2010	3	-6.67	-11.11	-7.89	0.004641667	118.5879497	178.9096526	33017	22.05208059	0.6338
2010	4	-6.11	-10.56	-7.33	0.005375	120.014054	82.91417166	33066	21.92850418	0.3884
2010	5	-3.89	-7.78	-4.96	0.004258333	132.4565973	107.471542	33119	22.00033782	0.3191
2010	6	-2.78	-7.78	-4.15	0.024658333	121.4258647	86.79933685	33175	22.11450899	0.372
2010	7	-1.11	-3.89	-1.87	0.000208333	165.2800878	66.69669615	33234	22.11746261	0.423
2010	8	-1.67	-6.11	-2.89	0.136158333	125.2094245	84.95921432	33296	22.30076427	0.4399
2010	9	-4.44	-8.89	-5.67	0.005166667	176.6695034	209.6644086	33362	22.02584462	0.4566
2010	10	-2.78	-13.33	-5.68	0	146.0890171	292.5369268	33431	21.78806002	0.2001
2010	11	-4.44	-13.33	-6.89	0.016116667	127.458138	261.7366803	33503	21.8440768	0.0032
2010	12	-2.22	-9.44	-4.21	0.00085	147.7534395	156.5544537	33579	21.66209067	0.0213
2010	13	-2.22	-6.67	-3.44	0	169.3752225	206.6843747	33657	21.49598546	0.1247
2010	14	0	-7.78	-2.14	0	186.0429463	176.3264865	33738	21.44480423	0.0747
2010	15	7.22	-7.22	3.25	0	245.8080478	288.1660458	33822	21.47815193	0.3934
2010	16	5.56	2.22	4.64	0	241.7271257	59.95647173	33909	21.58314664	1.2599
2010	17	9.44	-1.67	6.39	1.630925	67.46757635	170.790435	33999	21.76140616	1.4791
2010	18	3.89	-1.11	2.51	0.043708333	129.5067224	26.47219289	34092	21.82975254	2.2911
2010	19	6.11	2.22	5.04	0.014733333	179.3813113	203.5951093	34187	21.69245553	2.2171
2010	20	4.44	-2.22	2.61	0	253.3243194	45.43497156	34285	21.90475164	1.8264
2010	21	1.67	-7.22	-0.78	0	178.2963888	164.4032455	34386	21.98901073	1.3696
2010	22	3.33	-6.67	0.58	0.065466667	242.7984897	294.5434776	34489	22.083156	1.7658
2010	23	2.78	-4.44	0.79	0	267.359495	103.8670328	34595	22.2486097	1.7418
2010	24	5	-5	2.25	1.057183333	142.2054918	298.4909374	34703	22.62926671	2.0472
2010	25	13.33	1.67	10.12	4.141916667	284.4608514	68.47710691	34814	23.12509804	4.7825
2010	26	11.67	-1.67	8	0.027716667	387.2378933	77.96546985	34926	22.92772663	3.2255
2010	27	0.56	-3.89	-0.67	0.003583333	234.7107231	176.6892301	35042	22.99384566	2.156
2010	28	0.56	-3.89	-0.67	0.068183333	202.1964405	229.6415143	35159	22.84690692	1.4621
2010	29	1.67	-13.33	-2.46	0	232.2756603	193.8167697	35278	22.69473376	0.5605
2010	30	-7.22	-13.33	-8.9	0	153.0169118	276.4918644	35400	22.75450604	-0.0508
2010	31	-8.33	-13.89	-9.86	0	155.742414	142.3351068	35523	22.83295054	-0.3015
2010	32	-2.22	-13.33	-5.28	0	191.5766279	338.7432467	35649	22.92129333	-0.4317
2010	33	-1.11	-7.78	-2.94	0.048866667	149.8203472	258.1529517	35776	23.1085784	-0.3033
2010	34	1.67	-6.67	-0.62	0.1417	138.2543235	170.4110291	35905	23.19884066	-0.2549
2010	35	1.11	-4.44	-0.42	0	282.8756916	113.4632035	36036	23.28911681	-0.1708
2010	36	3.33	-4.44	1.19	0.297025	169.1546818	336.3579861	36169	23.25692259	-0.0506
2010	37	1.11	-5.56	-0.72	1.478475	179.3266347	68.67597719	36303	23.16191935	-0.0824
2010	38	-2.22	-15.56	-5.89	1.67E-05	140.014984	205.5920143	36440	22.91343333	0.034
2010	39	-2.22	-14.44	-5.58	1.67E-05	135.2405321	369.5466277	36577	23.17948392	0.1844
2010	40	-1.67	-10.56	-4.11	0.08035	77.78833028	401.6545103	36716	23.16164196	0.3818
2010	41	-2.22	-8.89	-4.06	0.891358333	61.59693208	131.9910465	36857	23.53126112	0.3912
2010	42	-2.78	-9.44	-4.61	0.002291667	139.1377205	104.2889808	36999	24.34986037	0.4975
2010	43	-1.11	-5.56	-2.33	3.33E-05	209.4065999	229.4715828	37143	24.97802424	0.6063
2010	44	1.11	-7.78	-1.33	0.000233333	211.6857332	340.1720171	37287	24.06269151	0.5804
2010	45	-3.33	-7.78	-4.56	0.014183333	137.1988201	192.6055619	37433	23.73962663	0.6441
2010	46	-1.11	-9.44	-3.4	0.297308333	119.729269	126.4190948	37581	23.51579451	0.461
2010	47	0.56	-9.44	-2.19	0.084291667	165.7281876	221.9893451	37729	23.29941905	0.586
2010	48	-1.11	-6.67	-2.64	0.011191667	161.4629869	248.4792629	37879	23.26255793	0.7318
2010	49	0.56	-5	-0.97	0.007591667	215.9663021	192.9330774	38029	23.16225483	1.0156
2010	50	2.78	0	2.01	0.000183333	320.3520665	270.4695529	38181	23.17983942	1.0774
2010	51	4.44	-3.89	2.15	0	334.1611361	301.7261178	38334	23.35445231	0.8685
2010	52	5	-3.89	2.56	0	409.1621616	232.2372749	38487	23.12168016	0.8838
2010	53	7.22	-3.33	4.32	0.125525	253.520992	407.1309456	38642	23.37463819	0.7664
2010	54	4.44	-2.22	2.61	0.041291667	75.61425035	137.8104026	38798	23.68367114	1.029
2010	55	3.33	-0.56	2.26	0	263.6064599	104.6039945	38954	24.32490798	1.1395
2010	56	2.78	-2.22	1.4	0.043733333	207.1322165	208.8667638	39111	24.13886762	0.9871
2010	57	0.56	-6.67	-1.43	0.315566667	120.0686571	222.8887927	39269	24.24237961	0.4992
2010	58	-2.22	-5.56	-3.14	0.068416667	119.7091058	132.2950695	39428	24.60433365	0.5057
2010	59	1.67	-3.89	0.14	0.043183333	187.3356345	272.2746861	39587	24.37619437	0.7618
2010	60	4.44	-1.11	2.92	0.008058333	233.5345711	251.1958638	39747	24.4024353	1.1619
2010	61	3.89	0	2.82	0.000425	243.5892452	165.3150575	39907	24.31951529	1.2495
2010	62	3.33	-0.56	2.26	0.048066667	207.0671659	182.1579814	40068	24.20944957	1.4111
2010	63	4.44	-2.78	2.46	0	394.4714723	115.5337808	40230	23.95725408	1.6343
2010	64	5	-2.78	2.86	0	426.5389723	439.5047534	40392	23.81971255	1.986
2010	65	7.22	-5	3.86	0	483.723969	419.4639872	40555	23.71599337	2.1077
2010	66	9.44	-4.44	5.62	0	602.7230652	467.4409352	40718	23.58882373	2.5986
2010	67	10.56	-1.11	7.35	0	646.133554	460.0942958	40882	23.58875873	3.1526
2010	68	11.67	-0.56	8.31	0	594.5900011	461.4164596	41046	23.5019103	3.5385
2010	69	15.56	1.11	11.58	0.000808333	679.1629471	454.4945402	41210	23.29466853	4.2181
2010	70	15.56	2.22	11.89	0.002408333	541.3981871	261.2535589	41375	22.82730931	5.5856
2010	71	18.89	3.89	14.76	0.818983333	178.3883097	421.2968946	41540	22.487206	6.3385
2010	72	10	5	8.62	2.895616667	123.9284277	64.10411222	41705	22.57907794	5.8054
2010	73	8.33	5	7.42	0.880633333	103.5372274	55.12892286	41870	22.45610128	5.714
2010	74	6.67	4.44	6.06	0.045566667	196.7819722	65.61390237	42036	22.2978331	5.472
2010	75	6.67	4.44	6.06	1.67E-05	528.4148953	78.1147339	42202	22.22689526	6.1317
2010	76	15.56	-0.56	11.13	0	786.6147442	476.9151246	42368	22.20477957	6.0439
2010	77	17.78	0	12.89	0	884.5385146	492.73607	42534	22.38504931	6.1423
2010	78	18.89	1.67	14.15	0	912.8883794	470.4246036	42701	22.239841	6.6336
2010	79	20	6.11	16.18	0	1037.163672	467.6267992	42867	22.17654399	7.2381
2010	80	21.11	6.67	17.14	0	1167.51575	434.3761299	43033	22.12846002	8.2721
2010	81	22.78	7.78	18.65	0.3143	561.2853258	416.7556944	43200	22.07529678	8.9717
2010	82	18.33	7.78	15.43	0.246025	335.6198265	124.479454	43366	22.06776872	8.0112
2010	83	8.33	2.78	6.81	0.000108333	570.5693522	48.67755496	43533	22.03161722	7.3379
2010	84	15.56	2.78	12.04	0.200816667	517.5675446	503.9315774	43699	21.95932703	7.304
2010	85	18.33	-1.11	12.99	1.101366667	733.2761299	231.4165508	43865	22.54928775	6.805
2010	86	5	-5.56	2.1	0	443.5347271	467.6842978	44032	23.14243733	5.4505
2010	87	8.89	-5.56	4.92	2.144625	172.9833566	470.2192181	44198	23.55635022	5.1462
2010	88	7.22	2.78	6	0.182625	186.4774684	150.5477538	44363	23.55354175	6.1981
2010	89	14.44	1.67	10.93	0.001841667	690.6611826	225.4681668	44529	23.45032287	6.1992
2010	90	10	1.67	7.71	0.000325	707.0691914	266.377738	44695	23.38381254	7.0355
2010	91	20	5	15.88	0	1108.768058	511.437004	44860	23.37711575	8.0091
2010	92	26.67	6.67	21.17	0	1343.450028	507.3818101	45025	23.26793688	9.2556
2010	93	28.33	10	23.29	0	1371.97667	462.4367559	45190	23.75985026	10.1937
2010	94	25.56	12.22	21.89	0	1784.308152	435.8771001	45354	23.63785555	10.2471
2010	95	21.11	7.22	17.29	0.001283333	1113.620212	465.9983303	45518	23.38136478	10.1538
2010	96	26.67	8.33	21.63	0.1036	1268.346143	406.7829076	45681	23.30600899	11.4624
2010	97	30	15.56	26.03	0	2277.840818	446.655186	45845	23.19562588	11.9524
2010	98	29.44	12.22	24.71	0.188058333	1355.85076	379.7380833	46007	23.15937483	11.6643
2010	99	28.89	4.44	22.17	0.03315	1122.008326	372.5798913	46169	22.70907647	9.7342
2010	100	7.22	3.89	6.31	0.008375	562.5312808	179.55233	46331	22.35889842	8.8922
2010	101	16.67	5.56	13.61	0	923.1641868	548.0731954	46492	22.51623298	9.2368
2010	102	21.11	2.78	16.07	0	1318.838169	437.8569009	46653	23.70849743	9.5001
2010	103	18.89	4.44	14.92	0.001133333	845.7859205	518.1982569	46813	23.43556558	9.0753
2010	104	13.33	0	9.67	0	506.9135009	221.6722941	46972	23.19244372	8.6767
2010	105	18.33	2.78	14.06	0	837.0168582	526.7408075	47131	22.93835897	9.424
2010	106	25.56	7.78	20.67	0.412966667	874.0810633	461.4455159	47289	22.69362501	10.6147
2010	107	25.56	6.11	20.21	0.19925	825.0047669	318.0201281	47446	22.56413508	9.4349
2010	108	7.22	1.67	5.69	0.023616667	312.1296568	170.5551657	47602	22.72336764	8.2005
2010	109	9.44	1.67	7.31	0	517.9129054	200.2423678	47758	22.78991477	8.5705
2010	110	17.22	2.22	13.1	0	745.8473127	558.1331817	47912	22.51472506	9.0552
2010	111	18.33	5	14.67	0.06255	608.2405161	482.3339367	48066	22.05321661	9.3347
2010	112	20	4.44	15.72	0.056466667	751.3825465	396.1591281	48219	21.83843654	9.3768
2010	113	20	3.33	15.42	0	1116.214058	385.3875336	48370	23.06520181	9.6508
2010	114	19.44	3.89	15.17	0.070741667	757.695633	564.1263783	48521	22.9735395	9.2588
2010	115	16.67	6.11	13.76	1.24475	125.4044897	259.9680097	48671	22.8100442	9.256
2010	116	11.67	7.78	10.6	1.029241667	100.9510084	107.3452959	48819	22.84548067	9.5122
2010	117	12.22	5.56	10.39	0.198733333	599.0647484	107.8803864	48966	22.66077397	9.1726
2010	118	11.11	1.67	8.51	0	629.9726654	455.3688101	49112	22.29813364	8.4895
2010	119	12.78	2.78	10.03	0	801.9290074	399.0018881	49257	22.06292231	9.1603
2010	120	19.44	6.67	15.93	0	905.2578058	546.7403494	49401	21.79374906	10.5234
2010	121	27.78	10	22.89	0	1358.744456	521.5866621	49543	21.4355202	12.0192
2010	122	30.56	15.56	26.43	0.23245	594.7040993	450.8251716	49683	21.15846369	12.9347
2010	123	23.89	17.78	22.21	1.59415	641.6816102	146.5390482	49823	21.36954902	13.9143
2010	124	25	12.78	21.64	0.37015	871.2859522	270.4929544	49960	21.02298838	12.9288
2010	125	22.22	8.89	18.56	0	858.2302341	442.5669115	50096	20.57709995	12.7329
2010	126	26.67	11.11	22.39	0.27015	1221.65997	569.4504788	50231	20.07356715	12.9866
2010	127	21.11	6.11	16.99	0	743.1969638	560.3188452	50363	19.85296842	12.1705
2010	128	20.56	8.33	17.19	0.721991667	641.877035	446.5041489	50495	19.74306776	12.115
2010	129	16.11	2.78	12.44	0.037625	632.339722	343.873558	50624	19.4194153	10.2474
2010	130	8.33	2.22	6.65	0	538.1930523	221.9358042	50751	20.58820346	9.7401
2010	131	15	1.67	11.33	1.692641667	284.1894484	601.7866816	50877	21.52422208	8.7049
2010	132	9.44	3.33	7.76	1.605108333	95.03821326	84.61235294	51000	21.45524922	8.8651
2010	133	16.11	6.67	13.51	0.000833333	325.1761622	124.2531591	51122	21.08927974	9.7106
2010	134	14.44	7.78	12.61	0.162083333	322.4562471	204.1767335	51241	20.95590182	11.2094
2010	135	27.22	11.11	22.79	0.132266667	1337.088583	332.1215001	51358	20.80370568	11.9435
2010	136	21.11	10.56	18.21	0.002566667	900.2163436	517.0892312	51473	20.49589932	11.8331
2010	137	19.44	8.89	16.54	0.335833333	439.1544302	545.8230915	51586	20.26571539	11.3258
2010	138	15.56	8.33	13.57	0.513241667	179.6434306	138.9265141	51697	20.2480755	10.6837
2010	139	11.67	8.33	10.75	0.000191667	250.5843739	92.26130682	51805	19.94894831	10.8051
2010	140	17.78	10	15.64	0	659.6935837	253.1652475	51910	19.56612934	11.9418
2010	141	27.22	13.33	23.4	0	1003.374627	550.5801323	52014	19.15532483	12.7199
2010	142	27.78	15.56	24.42	0.303733333	781.8861175	410.6865142	52114	18.74160907	13.1272
2010	143	22.22	15	20.24	1.86885	266.716222	299.7104497	52212	19.02927078	13.754
2010	144	22.22	13.89	19.93	0.00325	399.917488	255.3545538	52308	18.72855822	13.8793
2010	145	23.33	15	21.04	0.00005	644.1077855	286.6230725	52400	18.35121907	14.6201
2010	146	26.67	16.11	23.76	0	895.8815694	439.6306725	52490	17.92491473	15.116
2010	147	30	17.78	26.64	3.33E-05	1313.359499	547.7983339	52577	17.48002413	15.8904
2010	148	30.56	18.89	27.35	0.036416667	664.1662989	479.0819376	52662	17.99489253	15.7415
2010	149	26.11	17.78	23.82	0.000433333	684.3608582	289.6928502	52743	17.71672147	15.6825
2010	150	26.11	13.33	22.6	0	956.8020012	354.3647792	52821	17.22635894	15.5776
2010	151	30	16.11	26.18	0.123666667	789.0704057	569.5046317	52896	16.65229577	15.8605
2010	152	30.56	17.78	27.04	0.306483333	503.5565497	397.5129038	52969	16.19984012	16.1011
2010	153	26.11	14.44	22.9	0	795.9966503	256.7324937	53038	15.80794947	15.9247
2010	154	28.33	16.11	24.97	0.000383333	918.3023758	527.5724912	53103	15.44914637	16.4504
2010	155	27.78	18.89	25.33	0.001325	670.8221589	376.3463868	53166	15.13188429	16.5731
2010	156	28.33	18.89	25.74	0.226383333	534.0558894	354.1336778	53225	14.88251615	16.8321
2010	157	27.78	18.89	25.33	0.106141667	791.4485343	293.8819467	53281	14.65906666	16.5544
2010	158	25.56	12.78	22.04	0.0003	1096.404058	343.5280309	53334	14.39134237	15.3521
2010	159	21.11	10	18.06	0	920.4562131	410.4082198	53383	14.12201374	14.4619
2010	160	22.22	11.67	19.32	3.927258333	255.7260075	585.2579124	53429	15.45968645	13.5976
2010	161	17.22	12.22	15.85	0.003291667	513.1863292	72.04826916	53471	18.94373945	14.5235
2010	162	25.56	12.78	22.04	0	685.5874432	487.6168193	53510	18.0022728	14.8488
2010	163	25.56	13.89	22.35	0.019616667	570.430018	467.1209801	53546	17.64280474	16.0511
2010	164	31.11	19.44	27.9	0.528716667	730.595471	471.5924371	53577	17.66824574	17.1344
2010	165	28.33	16.67	25.12	0.008216667	625.1153143	296.6134574	53606	18.35161887	16.9081
2010	166	25	18.33	23.17	0.003133333	529.8318543	218.7056312	53630	17.62660257	16.6008
2010	167	23.33	17.78	21.81	0.119383333	485.7824635	255.665188	53651	17.35694698	16.8212
2010	168	28.33	17.22	25.28	0	1173.624179	428.3863683	53669	17.21483996	16.6251
2010	169	23.33	11.67	20.12	0	676.6384707	434.4317648	53682	16.69329223	15.9537
2010	170	27.22	13.89	23.56	0	778.92801	574.6877247	53693	16.1738617	16.5641
2010	171	31.11	17.78	27.44	0.041833333	1104.615981	503.0047114	53699	15.86627698	17.324
2010	172	28.89	16.11	25.38	0	1056.244733	418.5089568	53702	15.66120374	17.2263
2010	173	29.44	18.89	26.54	0.345633333	654.9866769	523.446677	53701	15.68070228	17.3201
2010	174	27.78	20.56	25.79	0.011108333	875.979023	289.275514	53696	15.31558079	18.1745
2010	175	31.67	20.56	28.61	0.035641667	1198.900125	496.9816905	53688	14.85407186	18.2574
2010	176	28.33	16.67	25.12	0	1026.932597	378.4889336	53676	14.44124695	17.7758
2010	177	27.22	17.22	24.47	0	950.2680028	495.7837908	53661	14.05601949	17.5677
2010	178	30	19.44	27.1	1.03355	899.8804639	446.1037453	53641	13.72179995	18.3465
2010	179	31.67	21.11	28.76	0.1209	968.1793801	452.7681046	53619	13.49670815	18.8591
2010	180	26.67	19.44	24.68	0.017883333	1134.858296	228.4517279	53592	13.31179529	18.3202
2010	181	25	8.89	20.57	0	1057.861714	488.4842612	53562	13.06139497	16.3318
2010	182	22.22	10	18.86	0	983.406447	539.4237142	53529	12.81407289	15.5475
2010	183	22.22	10	18.86	0	883.5957742	474.1217962	53491	12.62483111	15.2858
2010	184	25	12.22	21.49	0	1060.72511	574.5579877	53451	12.47856182	15.7319
2010	185	30	13.33	25.42	0	1367.643937	574.7227143	53407	12.36774357	16.5291
2010	186	32.78	18.33	28.81	0	1530.310727	565.443018	53359	12.2714913	17.6258
2010	187	34.44	20.56	30.62	0	1773.996979	475.057271	53308	12.26899786	18.4072
2010	188	33.89	21.11	30.38	0	1710.002764	492.9856537	53254	12.14616033	19.0108
2010	189	33.89	21.11	30.38	0	1870.65705	496.0998383	53196	12.07315356	19.1249
2010	190	34.44	22.22	31.08	2.081583333	1197.390857	476.904338	53135	11.96510177	19.3577
2010	191	32.78	18.33	28.81	1.728766667	1312.467067	392.8769196	53071	11.934537	19.2531
2010	192	27.78	14.44	24.11	0	1133.416809	525.5413365	53004	11.86261061	18.3034
2010	193	30	17.22	26.49	0.73635	682.3568476	568.3926095	52933	11.87342829	17.9308
2010	194	27.78	19.44	25.49	0.059183333	456.26382	344.053689	52860	12.53735802	18.3903
2010	195	25.56	19.44	23.88	1.139066667	524.0691574	206.5965368	52783	13.01361082	18.9869
2010	196	28.33	18.33	25.58	0	848.8172994	312.7365805	52703	13.03696722	19.2617
2010	197	30.56	20	27.65	0.48655	485.2050045	501.7411631	52620	13.14258821	19.343
2010	198	29.44	18.89	26.54	0.000166667	831.2836514	324.7284858	52535	13.34750245	19.5173
2010	199	30	18.89	26.94	0.0028	1335.872475	494.1107234	52446	13.27445577	20.0518
2010	200	31.67	22.22	29.07	0.00055	1172.862153	516.2557922	52355	13.04225785	19.9226
2010	201	30.56	18.33	27.19	0.4471	546.8714812	459.8963854	52261	13.0838097	19.4187
2010	202	29.44	18.89	26.54	0.416091667	750.04759	326.6476689	52164	12.96132457	19.8594
2010	203	31.11	18.89	27.75	0.344708333	979.5500502	417.1403822	52065	12.89125179	19.7938
2010	204	29.44	20	26.85	0.001166667	1130.484838	516.7896773	51963	16.52457752	20.4073
2010	205	33.89	22.22	30.68	0.002166667	1667.306151	440.4106213	51858	16.41951924	21.236
2010	206	32.78	22.22	29.88	0.206216667	1058.341802	478.5279318	51751	16.2321553	20.6601
2010	207	27.22	17.22	24.47	0	1104.311093	280.8925487	51642	15.92954878	19.4297
2010	208	27.78	16.11	24.57	0	989.1303315	564.1301378	51530	15.50772485	18.9353
2010	209	29.44	18.33	26.39	0	1062.703218	530.1708773	51417	15.09486816	19.3477
2010	210	30.56	20	27.65	0.312433333	1242.692256	499.9139181	51300	14.76409334	19.9715
2010	211	28.89	14.44	24.92	0	1191.594979	458.6983705	51182	14.47128286	18.7021
2010	212	25.56	13.33	22.19	0	1046.683227	492.6402217	51062	14.16875294	18.0935
2010	213	26.67	15.56	23.61	0.0018	1014.72537	468.5463397	50939	13.84843131	18.5999
2010	214	27.78	18.33	25.18	0	799.9971262	406.3037292	50815	13.53773836	18.3624
2010	215	25.56	19.44	23.88	0.12175	482.7329491	319.319839	50688	13.22613505	18.7912
2010	216	28.33	21.67	26.5	0.1883	643.2302471	250.2314478	50560	12.96137255	19.7983
2010	217	32.22	20.56	29.01	0.015533333	1043.26288	360.6039064	50430	12.66432749	19.9002
2010	218	28.33	18.33	25.58	0.19875	980.2004728	368.7530916	50298	12.37889137	19.312
2010	219	25.56	15	22.65	0	950.096899	392.7425644	50164	12.05264343	18.3264
2010	220	26.67	13.89	23.15	0	1108.238357	462.3589718	50029	11.1063118	18.0689
2010	221	29.44	15	25.47	0	1455.063619	506.9994989	49892	10.96220608	18.5306
2010	222	32.22	17.22	28.1	0	1413.836914	509.5128834	49754	10.78548874	19.381
2010	223	32.22	20	28.86	0	1543.52506	388.7245536	49614	10.66545242	19.8647
2010	224	31.67	20	28.46	1.727325	407.2173777	505.668277	49472	10.54568703	19.5909
2010	225	23.33	16.67	21.5	0.066308333	456.9723593	142.4630043	49330	10.70245531	18.7431816
2010	226	21.67	17.22	20.44	0	729.8387913	171.2793884	49186	10.72871572	18.381927
2010	227	24.44	19.44	23.07	0.923683333	306.2990266	208.9867047	49040	10.73976724	18.4009404
2010	228	27.22	19.44	25.08	0.000133333	894.7940435	221.0361394	48894	10.85874374	19.3217322
2010	229	30	16.67	26.33	0	1297.342299	449.2098429	48746	10.85167825	18.9242616
2010	230	27.78	17.78	25.03	0	866.6201794	506.3022615	48597	11.60138661	18.3629136
2010	231	25.56	14.44	22.5	0	779.0633917	270.5033852	48446	11.88157681	18.0759018
2010	232	30	16.11	26.18	0	1085.611031	468.7396625	48295	11.50461238	18.2805222
2010	233	29.44	16.67	25.93	0.0001	1022.523487	461.6193631	48143	11.36066855	19.009
2010	234	28.33	17.22	25.28	5.16885	519.1962818	306.8267764	47990	12.75421505	19.6061
2010	235	26.11	17.22	23.67	0.204908333	405.6654593	253.2890919	47836	12.83918513	18.824239
2010	236	20.56	15	19.03	0.027841667	371.05711	155.1791699	47681	12.68825252	18.178159
2010	237	20.56	15	19.03	0.044958333	441.8330614	172.3907628	47525	12.54422896	18.079228
2010	238	25	16.67	22.71	0.000158333	877.2703059	279.0671128	47368	12.43283921	18.1085035
2010	239	24.44	10.56	20.62	0	748.6583543	455.2917814	47210	11.99308995	17.12626
2010	240	25	10.56	21.03	0	779.5339742	547.6961022	47052	11.76277013	16.5881965
2010	241	27.22	12.22	23.1	0	791.4642562	536.0757896	46893	12.51151426	16.9395025
2010	242	30.56	14.44	26.13	0	1024.022671	518.6078444	46734	12.92905543	17.6683615
2010	243	30.56	16.67	26.74	0	1047.837738	511.5565456	46573	15.1567185	18.5703
2010	244	32.22	18.33	28.4	0	1262.067289	488.2495637	46413	16.74235414	18.5463
2010	245	32.22	18.33	28.4	0	1320.47912	492.8001341	46251	16.48021567	18.7501
2010	246	32.78	18.33	28.81	0.00065	1314.304528	503.9149906	46089	16.27508848	18.5626
2010	247	31.67	15	27.08	0	1431.1609	400.319028	45927	15.95479698	17.3053
2010	248	19.44	10.56	17	0	721.8798257	265.2846998	45764	15.88825946	15.6917
2010	249	20	7.78	16.64	0	679.7199161	415.3873904	45600	15.87923244	15.2367
2010	250	25.56	8.89	20.97	0	1107.261922	457.7717499	45437	15.90755549	16.4637
2010	251	31.67	15	27.08	0	1890.012094	495.0344584	45272	15.82041667	17.1894
2010	252	23.89	13.33	20.99	0.000183333	1038.530398	503.5719828	45108	15.6649777	16.0449
2010	253	19.44	12.78	17.61	6.67E-05	777.2339625	231.0999266	44943	15.54289215	15.704
2010	254	20	8.33	16.79	0	748.6275351	290.650163	44778	15.4799978	15.1216
2010	255	22.78	10	19.26	0.660916667	216.9822357	447.5443705	44613	15.5555849	15.6194
2010	256	20.56	9.44	17.5	0.0016	619.4254481	139.7689383	44447	15.52660896	15.662
2010	257	25	11.11	21.18	0	1061.000073	452.1078792	44281	15.44442493	15.3674
2010	258	22.78	11.11	19.57	0	990.0210669	500.4573501	44115	15.45741651	15.2044
2010	259	23.89	10.56	20.22	2.125225	372.4080067	503.9175863	43949	15.72401278	14.4337
2010	260	17.78	11.67	16.1	0.484125	375.0209321	84.36151018	43783	16.82543736	15.1875
2010	261	17.78	8.89	15.33	0.005	375.7720653	239.2505674	43617	16.49464916	14.9132
2010	262	22.78	8.89	18.96	0.0195	480.5608047	453.506214	43450	16.29275839	15.4803
2010	263	26.11	11.67	22.14	3.33E-05	1081.792827	332.6857037	43284	15.94155304	15.3737
2010	264	20.56	7.22	16.89	0	643.9765751	493.7118306	43117	15.71900825	14.453
2010	265	25	7.22	20.11	0.01325	635.0261859	480.9962981	42951	15.54987036	15.6022
2010	266	30.56	15	26.28	0.00045	782.4224953	375.1295812	42784	15.41224609	16.6748
2010	267	28.89	16.11	25.38	0	1217.707535	349.8233376	42618	15.33214616	17.2898
2010	268	31.11	17.22	27.29	0	1751.510632	405.625106	42452	15.21860128	17.3352431
2010	269	25.56	10	21.28	0.000125	831.7510312	472.0965095	42286	15.14451741	16.0387123
2010	270	18.33	10	16.04	1.195225	164.7892971	268.5343305	42120	16.59738284	15.8434854
2010	271	20	13.33	18.17	1.661683333	426.1130836	99.07493922	41954	17.25754229	16.633734
2010	272	22.78	12.22	19.88	0	487.310112	298.0669331	41788	17.29096665	15.8528264
2010	273	18.33	12.22	16.65	6.583841667	126.6738748	248.5008769	41623	17.41345266	15.7229865
2010	274	17.78	12.22	16.25	0.844658333	547.663525	17.46538666	41458	17.64466776	15.4707795
2010	275	18.33	5.56	14.82	0	426.5965178	271.3559683	41293	17.51765147	14.2218878
2010	276	16.67	5.56	13.61	0	575.8699083	458.080284	41129	17.32436894	13.8674
2010	277	16.67	6.11	13.76	0.53855	278.6348763	337.7378674	40964	17.28957392	12.6963
2010	278	9.44	6.67	8.68	0.212733333	133.5831472	101.3366339	40801	18.22406484	12.208
2010	279	11.11	7.78	10.19	0.127425	190.0250428	71.4293378	40637	18.49707018	12.2081
2010	280	12.22	8.33	11.15	0.039575	463.5628944	85.42313584	40474	18.60656616	12.8707
2010	281	18.89	7.22	15.68	0	655.8766755	338.7311719	40312	18.57886518	12.7302
2010	282	22.22	7.78	18.25	0	779.6958025	438.6341968	40150	18.4877733	13.3111403
2010	283	22.78	6.67	18.35	0	692.8307783	417.9222036	39989	18.3241896	13.3989457
2010	284	25	6.67	19.96	0.066072917	741.3670975	369.4599528	39828	18.28195585	14.2648564
2010	285	24.44	12.78	21.24	0.1991125	521.5284483	277.3587617	39667	18.41367206	14.5236021
2010	286	20.56	3.33	15.82	0.09274375	566.6405233	344.9811684	39508	18.36576001	13.0738789
2010	287	15.56	3.89	12.35	0.14305	231.1095259	441.6509441	39349	18.295984	11.9202654
2010	288	12.22	6.11	10.54	0.1139375	468.0303829	77.99188589	39191	18.34921761	11.8716922
2010	289	13.89	6.11	11.75	0.114870833	761.6832293	307.2938539	39033	18.41744725	11.8464715
2010	290	16.11	6.67	13.51	0.122252083	685.4528063	422.1212059	38876	18.84676983	11.6802017
2010	291	19.44	5	15.47	0.162904167	555.0569026	392.1113378	38720	19.16396122	11.3943671
2010	292	11.67	5.56	9.99	0.1466625	282.4429187	124.3855309	38565	19.18587469	11.2019425
2010	293	13.33	2.78	10.43	0.1443875	414.7898982	271.7385645	38411	19.20687382	10.3992
2010	294	15.56	3.33	12.19	0.1517625	699.3025205	347.0574259	38258	19.23035844	10.3955
2010	295	13.33	3.33	10.58	0.159147917	490.3280585	282.2905054	38106	19.63063355	9.9125
2010	296	10.56	3.33	8.57	0.166525	557.1833776	197.7326571	37955	20.20227314	10.0007
2010	297	21.67	8.89	18.15	0.1739	1012.377238	300.9086076	37804	20.29306825	11.4158
2010	298	22.78	10	19.26	0.189858333	789.3058313	292.8822202	37655	20.32738014	12.046
2010	299	20.56	10.56	17.81	0.18865625	358.6443465	159.6884315	37507	20.93902461	12.6377
2010	300	20.56	11.11	17.96	0.5158375	632.6654051	209.8228366	37361	21.88356362	13.4026
2010	301	21.11	12.22	18.67	0.212004167	1297.96509	332.1233642	37215	23.84846328	12.3738
2010	302	17.78	6.11	14.57	0.217233333	689.7388036	358.5730895	37071	23.77878534	11.3018912
2010	303	9.44	1.11	7.15	0.2224625	444.2267866	155.9733536	36928	21.66900245	10.1127819
2010	304	14.44	1.67	10.93	0.22984375	808.029403	259.3493354	36787	21.93683033	10.2771835
2010	305	10.56	0	7.65	0.232933333	472.1719969	293.7119819	36647	23.13847408	9.4542414
2010	306	8.89	-2.78	5.68	0.240304167	319.3909071	371.8125668	36509	22.91400534	8.4547544
2010	307	8.89	-3.33	5.53	0.247679167	312.2789986	367.1941878	36372	22.74373671	8.0988623
2010	308	11.67	-1.67	8	0.604264583	83.69635213	355.4632834	36237	22.82592054	8.6929499
2010	309	7.22	4.44	6.46	0.2888375	175.9257212	54.8098496	36103	22.8410022	8.7321821
2010	310	7.78	0	5.64	0.269820833	172.1142941	100.7224709	35971	22.72272439	8.2053
2010	311	6.67	-1.67	4.38	0.277195833	210.7492259	146.9910438	35841	22.62131145	7.5741
2010	312	7.22	-1.67	4.78	0.284570833	361.6596132	185.7458068	35713	22.56119935	7.7737
2010	313	12.78	1.67	9.72	0.291952083	368.5225518	335.5141348	35586	22.4846269	8.297
2010	314	13.33	2.78	10.43	0.2993375	419.5066571	310.0616716	35462	22.40245179	8.884
2010	315	15.56	-0.56	11.13	0.25615	492.2783269	330.0317213	35339	22.31755652	8.2462
2010	316	14.44	-1.67	10.01	0	481.0964535	337.9227122	35219	22.40595768	7.6985
2010	317	15.56	-2.78	10.51	0	559.4893169	340.6536752	35100	22.70749814	7.4497
2010	318	16.11	-2.22	11.07	0	579.0470585	335.348102	34984	22.62351081	7.2712497
2010	319	16.11	1.11	11.99	0	372.2928587	248.0123315	34870	22.49872231	8.2025474
2010	320	11.11	5.56	9.58	0.537322917	152.0840852	203.0266118	34759	22.45484933	8.4183245
2010	321	13.33	6.11	11.35	0.203147917	320.9556925	44.64180784	34649	22.30917822	8.7181706
2010	322	10	4.44	8.47	0	232.0091213	67.80163279	34542	22.25379481	8.1296876
2010	323	7.22	0.56	5.39	0.0064375	269.3813889	64.19658517	34438	21.98501396	7.6056575
2010	324	8.33	1.67	6.5	0	277.0268488	233.4916997	34336	21.70367449	7.1003094
2010	325	9.44	0	6.85	0	207.7341228	107.2860356	34237	22.60085864	6.8462342
2010	326	10	0.56	7.4	0	298.3917824	257.8959578	34140	23.64977073	8.3395
2010	327	16.11	7.78	13.82	0	539.9005792	237.1552899	34046	23.56152404	8.2069
2010	328	16.67	1.11	12.39	0	692.4428835	91.38558049	33954	23.67601613	7.3275
2010	329	6.11	1.11	4.74	0.507597917	181.2210866	238.7872793	33866	23.58523292	6.1559
2010	330	6.67	1.67	5.29	0.2343625	222.6173954	31.3071048	33780	23.64919192	6.2087
2010	331	5.56	-1.67	3.57	0.0618	302.8723865	234.1558002	33697	23.7362444	5.2543
2010	332	1.67	-1.11	0.9	0.027897917	235.2704458	74.68713189	33618	23.3301273	5.3464
2010	333	5.56	-4.44	2.81	0	198.9130146	285.5329895	33541	23.24562208	4.8500625
2010	334	7.22	-4.44	4.01	0.559314583	144.0269041	271.9509367	33467	23.30334315	5.8411426
2010	335	15.56	6.11	12.96	0.634014583	217.6643005	35.0959667	33397	23.21020602	7.4375195
2010	336	8.89	-3.33	5.53	0	225.6602918	59.24984248	33329	23.23087884	5.9121342
2010	337	0	-3.89	-1.07	0	141.7869422	117.1770329	33265	23.31314786	5.1358971
2010	338	0.56	-3.33	-0.51	0	141.1717228	105.6861222	33204	21.11735729	4.6641766
2010	339	1.11	-5	-0.57	0	208.3396032	135.5414228	33146	21.02556428	4.3988922
2010	340	0	-4.44	-1.22	0	185.6257966	181.157319	33092	21.02540186	3.7945295
2010	341	-1.67	-5.56	-2.74	0	148.6670345	112.8574196	33041	20.93898579	2.6813
2010	342	-2.22	-6.67	-3.44	0	170.1421997	109.4410329	32993	20.80851979	2.8847161
2010	343	-2.22	-7.78	-3.75	0	169.1102716	141.160885	32949	20.8752363	2.4438209
2010	344	-1.11	-7.78	-2.94	0.8478	92.37163869	278.3194871	32909	21.33692544	2.2289779
2010	345	-1.11	-6.11	-2.49	0	125.3133763	68.04100754	32872	21.34958569	2.0729832
2010	346	3.33	-6.67	0.58	6.78475	53.99989583	214.0411109	32838	21.45004076	2.4531619
2010	347	6.67	-5.56	3.31	0.14025	286.7707843	43.10753475	32808	21.25882928	2.2626055
2010	348	-2.78	-10.56	-4.92	0.25175	157.1837901	185.3396376	32782	21.263215	1.9767709
2010	349	-6.11	-10	-7.18	0.0091	133.9123063	131.4019964	32759	21.24228966	0.491
2010	350	-4.44	-10	-5.97	0.00675	116.3516088	142.4384239	32740	21.16076727	0.3202
2010	351	-3.89	-10	-5.57	0	127.3264968	133.26696	32724	21.03714666	0.3792
2010	352	-1.11	-6.67	-2.64	0	177.9268931	146.6265591	32712	21.04765131	0.4296
2010	353	-0.56	-10.56	-3.31	0	125.3856509	173.7958048	32704	21.22827465	0.2943
2010	354	-1.67	-11.11	-4.26	0.0354	122.916714	199.5150922	32699	21.09509955	0.4359
2010	355	-1.67	-4.44	-2.43	0.0081	206.3356866	68.5882317	32698	21.05901365	0.5248
2010	356	1.67	-5	-0.17	0	258.9447398	261.5004434	32701	20.88832346	0.7378
2010	357	2.78	-3.89	0.94	0.0417	253.2793513	154.8191213	32707	20.70821046	1.0465
2010	358	1.11	-5	-0.57	0.0011	228.4464871	146.2933032	32717	21.33995982	1.1992
2010	359	0.56	-5	-0.97	0.0005	180.6076639	237.0277718	32731	21.32792986	1.1606
2010	360	-1.11	-6.11	-2.49	0.0301	171.8522103	95.08027726	32749	21.35030112	0.9987
2010	361	-2.78	-8.89	-4.46	0	194.8111694	94.07567897	32770	21.31730293	0.7789
2010	362	-2.22	-8.89	-4.06	0.0014	193.5319113	263.7063792	32794	21.02073072	0.716
2010	363	1.11	-6.11	-0.88	0	209.7445961	213.9627993	32822	20.97901192	0.8949
2010	364	4.44	-7.22	1.24	0.0145	149.7636122	237.5259634	32854	20.82162914	0.8929
2010	365	3.33	-7.22	0.43	0	147.0148056	124.7939433	32889	20.67101579	0.7418907
