"Shalehills,"	2012	:	input	for	MTCLIM	v4.3				
MTCLIM	v4.3	OUTPUT	FILE	:	Mon	Jan	16	16:32:50	2012	
	yday	Tmax	Tmin	Tday	prcp	VPD	srad	daylen	SoilW	SoilT
		(degC)	(degC)	(degC)	(cm)	(Pa)	(Wm-2)	(s)	(%)	(deg C)
2008	1	4.44	-2.78	2.46	0.945	162.1754386	103.1207753	32928	22.43286237	2.70644181
2008	2	3.89	-5.56	1.29	0.02	187.1368421	232.8207083	32971	22.45182191	2.43278212
2008	3	-3.33	-11.11	-5.47	0	101.5438596	147.7563399	33017	22.44491683	2.05580727
2008	4	-4.44	-10.56	-6.13	0	79.34736842	202.4340753	33066	22.1757048	1.50974273
2008	5	3.33	-9.44	-0.18	0	213.3263158	177.5587866	33119	22.06966314	0.30269122
2008	6	5.56	-0.56	3.88	0.09	153.9578947	208.5530281	33175	22.01055176	0.2361847
2008	7	7.78	5	7.01	0.035	91.50175439	193.554512	33234	22.61795184	0.82031272
2008	8	18.89	6.11	15.38	0.025	564.2736842	207.3596443	33296	22.75374789	2.46195715
2008	9	19.44	8.33	16.39	0.06	537.6280702	145.0679761	33362	22.49140902	5.09837599
2008	10	11.67	-0.56	8.31	0	356.7017544	196.8684316	33431	22.31488848	6.3713066
2008	11	7.78	-0.56	5.49	2.36	221.4175439	97.84255042	33503	23.39872183	5.62279454
2008	12	10.56	2.78	8.42	0	250.8	212.3820175	33579	22.9789139	4.71345382
2008	13	6.11	-2.22	3.82	0	199.2421053	130.2973113	33657	22.76549167	4.71188527
2008	14	3.89	-2.22	2.21	0.12	138.4210526	107.437446	33738	22.35775968	3.82283113
2008	15	2.78	-2.78	1.25	0	119.7754386	156.8194704	33822	22.14398849	3.27321121
2008	16	-1.11	-2.78	-1.57	0	32.70175439	169.4832193	33909	21.95869504	3.13496967
2008	17	0	-3.33	-0.92	0.57	65.66315789	54.64122451	33999	21.71235602	2.33260406
2008	18	2.22	-2.22	1	0.33	96.6877193	259.410067	34092	21.6233049	2.14594661
2008	19	2.78	-6.67	0.18	0	173.9508772	101.4686529	34187	21.66180194	1.86789498
2008	20	-1.11	-12.22	-4.17	0	146.877193	197.1440278	34285	21.68214923	1.85294147
2008	21	-10	-13.89	-11.07	0	37.60701754	295.9013676	34386	22.72986699	1.15064935
2008	22	-5	-13.89	-7.44	0	98.44210526	75.6886768	34489	22.35005473	0.30697859
2008	23	2.78	-6.11	0.33	0	167.4526316	303.5188354	34595	22.60412948	-0.16871034
2008	24	-2.78	-7.78	-4.15	0	76.32280702	172.5912892	34703	22.7539344	-0.3033965
2008	25	-2.22	-10	-4.36	0	109.6210526	310.6993709	34814	22.03016899	-0.39144444
2008	26	-3.89	-10	-5.57	0.04	82.45614035	139.0999168	34926	21.71146784	-0.38255599
2008	27	-2.78	-8.33	-4.31	0	82.82807018	165.3614133	35042	21.43348163	-0.27997282
2008	28	-0.56	-5	-1.78	0	80.60350877	206.4407029	35159	21.33210971	-0.52372549
2008	29	2.22	-2.22	1	0.4	96.6877193	57.86711184	35278	21.66916172	-0.4414289
2008	30	5.56	-1.11	3.72	1.5	164.3087719	320.9103309	35400	21.82319847	-0.26376447
2008	31	0.56	-8.89	-2.04	0	149.9578947	299.6179348	35523	22.61056212	-0.10711861
2008	32	1.11	-7.78	-1.33	2.715	149.9017544	44.79662958	35649	22.72909372	-0.03308305
2008	33	2.78	-2.22	1.4	0.005	110.245614	70.96715539	35776	23.39756124	0.09742031
2008	34	1.11	-5.56	-0.72	0	123.1789474	252.0953203	35905	23.21961591	0.29024739
2008	35	6.11	-5	3.06	0.02	238.077193	37.15488668	36036	23.00507107	0.21255188
2008	36	5	0.56	3.78	1.02	115.4596491	78.01790502	36169	22.5631461	0.3763085
2008	37	13.33	3.33	10.58	0.4	351.2280702	76.04084906	36303	22.29120772	0.43350829
2008	38	16.67	1.67	12.54	1.01	536.0421053	44.24482559	36440	22.78592202	0.96848841
2008	39	3.33	-1.11	2.11	0.06	103.8526316	119.5523488	36577	23.12407794	3.39900892
2008	40	2.22	-2.22	1	0.78	96.6877193	133.9027617	36716	23.2456811	2.32110136
2008	41	4.44	-1.67	2.76	0.21	143.4385965	175.6752367	36857	23.4455725	1.84666727
2008	42	-1.11	-16.67	-5.39	0	170.5473684	350.5501089	36999	23.34650658	1.31398769
2008	43	-8.89	-16.67	-11.03	1.91	68.41403509	65.52718621	37143	23.1687145	0.8060912
2008	44	-3.33	-11.67	-5.63	0.57	106.2385965	85.68008681	37287	22.83362265	0.43058033
2008	45	0.56	-7.78	-1.74	0	138.5403509	375.5329431	37433	22.79570318	0.23754411
2008	46	2.22	-7.78	-0.53	0	173.5438596	46.57973597	37581	23.35262095	0.05203693
2008	47	2.78	-11.11	-1.04	0	213.5157895	350.3656893	37729	24.49588406	0.34514664
2008	48	2.22	-10.56	-1.29	0.23	197.9649123	110.5781685	37879	24.22939658	0.48495673
2008	49	8.89	-0.56	6.29	0.44	257.7403509	144.9049047	38029	23.86939698	0.73958468
2008	50	8.33	-4.44	4.82	0	295.9298246	261.2236379	38181	24.61057646	0.86935605
2008	51	-1.11	-10	-3.56	0	128.9964912	270.7561855	38334	24.1182229	0.69158705
2008	52	-3.89	-12.78	-6.33	0	106.4491228	397.073593	38487	23.65099389	0.40224186
2008	53	-2.22	-12.78	-5.13	1.05	132.2526316	79.42289301	38642	23.47171224	-0.10690947
2008	54	-2.78	-5.56	-3.54	0.08	46.58245614	200.7519583	38798	23.22323909	-0.13284283
2008	55	1.67	-8.89	-1.24	0	172.5333333	413.2258724	38954	22.93714966	-0.05619302
2008	56	5	-8.89	1.18	0	247.7824561	324.5272071	39111	22.90303288	-0.18711466
2008	57	2.78	-5	0.64	0.79	153.2701754	47.53574498	39269	23.10203226	0.09627004
2008	58	1.67	-3.33	0.29	0.01	102.5754386	219.2146977	39428	23.33935958	0.02411674
2008	59	-2.22	-11.67	-4.82	0	124.0421053	358.7296795	39587	23.3043275	0.18776879
2008	60	1.67	-12.22	-2.15	1.565	197.9789474	236.0393017	39747	23.10531594	-0.05002339
2008	61	1.67	-5.56	-0.32	0	135.3192982	260.9733872	39907	23.38590243	-0.40671166
2008	62	4.44	-5.56	1.69	0	200.9473684	342.8586419	40068	23.22005518	-0.28844299
2008	63	15.56	1.67	11.74	2.165	483.3684211	405.5281082	40230	23.34860802	-0.4686171
2008	64	7.78	1.67	6.1	3.805	176.9894737	20.13010008	40392	23.19418515	-0.23929509
2008	65	4.44	-2.78	2.46	0	162.1754386	91.12006065	40555	23.20022083	-0.07480648
2008	66	7.78	-2.78	4.88	1.01	257.2491228	412.5798583	40718	23.17899688	0.39983675
2008	67	7.22	-1.11	4.93	2.03	213.8035088	109.773051	40882	23.46756237	0.51549117
2008	68	3.33	-7.22	0.43	0	192.8140351	38.16644526	41046	23.48976381	1.489979
2008	69	0	-6.67	-1.83	0	114.4140351	418.9705409	41210	23.19382173	1.48851502
2008	70	6.11	-3.89	3.36	0	223.8807018	301.4547967	41375	23.23491002	1.54289142
2008	71	6.11	1.11	4.74	0.01	136.2807018	261.5710932	41540	23.13220634	0.95541716
2008	72	4.44	-3.33	2.31	0	170.8210526	149.0074775	41705	23.12884752	1.0382366
2008	73	13.33	-3.33	8.75	0.015	456.6035088	403.9206838	41870	22.95540018	2.0295602
2008	74	15	3.89	11.94	0.335	414.0701754	317.7088321	42036	22.84922106	1.83976565
2008	75	10	1.11	7.56	0	265.5368421	243.2038127	42202	22.95390461	2.92007832
2008	76	5.56	-3.89	2.96	0	208.5403509	161.0423042	42368	23.15901455	4.35226904
2008	77	7.78	-3.89	4.57	0.1	272.2807018	455.2582869	42534	23.19109983	4.71575436
2008	78	5.56	2.22	4.64	1.52	93.68421053	52.6479322	42701	23.27047014	3.37150701
2008	79	12.78	1.67	9.72	0.21	362.0140351	75.60865208	42867	23.32944194	3.88954679
2008	80	3.89	-2.78	2.06	0	147.677193	331.7353312	43033	23.15680999	3.47199878
2008	81	6.11	-2.78	3.67	1.19	207.922807	462.6838181	43200	22.99001692	4.29381441
2008	82	5.56	-6.11	2.35	0	235.8736842	281.1786175	43366	22.87275704	4.14511587
2008	83	6.11	-5.56	2.9	0	244.554386	504.324747	43533	22.75445745	4.19865571
2008	84	5.56	-4.44	2.81	0	216	370.9361929	43699	22.76624365	2.79009781
2008	85	9.44	-3.89	5.78	0	324.4350877	473.3838402	43865	23.27712112	2.84813416
2008	86	12.22	1.67	9.32	0.125	339.4175439	319.523055	44032	23.40732736	2.41918802
2008	87	6.67	2.22	5.44	0.615	128.1684211	57.33573491	44198	23.29730035	3.7549652
2008	88	7.22	-2.78	4.47	0	240.3929825	69.31273779	44363	23.14409215	4.94685406
2008	89	7.22	-4.44	4.01	0	262.7508772	525.1452838	44529	22.98450588	4.35373302
2008	90	10	-4.44	6.03	0	348.8912281	493.1239148	44695	22.85585292	3.95438019
2008	91	13.33	4.44	10.89	0.155	325.3473684	222.9048051	44860	22.86006466	3.947374
2008	92	21.11	1.11	15.61	0.005	779.5157895	171.3396096	45025	22.82315461	4.62456932
2008	93	8.33	-2.78	5.28	0	274.5263158	462.2235564	45190	23.75768561	5.57082325
2008	94	9.44	-2.22	6.24	0.9	302.6736842	314.8431952	45354	24.20072526	5.3953
2008	95	11.67	3.33	9.38	0.19	281.5789474	111.3361229	45518	23.96519863	5.7571
2008	96	12.22	4.44	10.08	0	277.5157895	275.1726024	45681	23.71660414	6.9152
2008	97	15	4.44	12.1	0	401.4596491	401.8474765	45845	23.52434562	7.34
2008	98	8.33	5.56	7.57	0	94.65263158	125.2019054	46007	23.30318807	6.8906
2008	99	14.44	6.11	12.15	0	332.6807018	260.0968917	46169	23.5740991	7.3973
2008	100	16.11	6.11	13.36	0	414.5754386	254.827429	46331	24.07356588	8.5416
2008	101	20.56	6.67	16.74	0.74	649.7052632	476.8060224	46492	24.51124816	10.0367
2008	102	20	11.67	17.71	0.19	459.0105263	142.8412429	46653	24.35706225	10.6805
2008	103	18.33	3.89	14.36	0.225	581.7052632	454.8654359	46813	23.8896313	11.3124
2008	104	8.33	0.56	6.19	0.015	218.6315789	168.5806162	46972	23.6385555	8.9658
2008	105	10.56	-2.22	7.04	0	340.6947368	399.2359411	47131	23.45901233	7.8339
2008	106	15	0	10.88	0	484.5333333	559.5582613	47289	23.37304581	8.131
2008	107	20	2.22	15.11	0	701.6982456	549.8492099	47446	23.86494195	8.9395
2008	108	26.11	7.22	20.92	0	1022.021053	552.2985611	47602	23.56095657	10.3329
2008	109	28.33	10.56	23.44	0	1130.484211	535.9365283	47758	23.34718074	12.0038
2008	110	27.22	12.22	23.1	3.12	984.1192982	415.2528809	47912	23.4833494	12.4873
2008	111	15.56	12.78	14.79	0.24	144.8140351	114.5538648	48066	23.46819109	11.9807
2008	112	21.11	11.67	18.51	0	532.8070175	275.2961564	48219	23.68810491	12.5455
2008	113	22.22	10	18.86	0	666.6666667	412.4645992	48370	23.72067003	13.0997
2008	114	23.89	10.56	20.22	0	768.9403509	419.9572102	48521	23.52504112	13.3695
2008	115	22.22	11.11	19.17	0	629.8245614	519.1230785	48671	24.48267071	13.5077
2008	116	25	11.11	21.18	2.11	836.3719298	386.4889059	48819	24.21320739	13.3095
2008	117	27.22	10.56	22.64	0.43	1034.203509	391.9625767	48966	24.24608009	14.6146
2008	118	19.44	7.22	16.08	2.13	568.5824561	410.7150392	49112	24.18762308	14.5117
2008	119	11.11	5	9.43	0	217.0666667	85.65224241	49257	24.4982409	11.7244
2008	120	13.89	2.78	10.83	0	387.2912281	439.8841022	49401	24.43124562	11.3145
2008	121	12.22	3.33	9.78	0	304.245614	404.7263105	49543	24.34235709	10.1017
2008	122	15	3.89	11.94	0	414.0701754	256.5808907	49683	24.20671203	9.5681
2008	123	23.33	9.44	19.51	0.66	761.6350877	312.7389991	49823	24.36241013	11.5045
2008	124	19.44	10	16.85	0.82	484.7017544	286.893186	49960	24.65154213	13.0122
2008	125	16.67	2.78	12.85	0	516.7719298	383.8550641	50096	24.41410709	12.482
2008	126	20.56	5.56	16.43	0	674.7789474	540.9905567	50231	24.12170832	12.2118
2008	127	22.78	8.33	18.81	0	752.9473684	416.8674857	50363	23.92661523	12.5585
2008	128	26.11	12.78	22.44	0.21	870.1122807	489.7494883	50495	23.68962094	12.228
2008	129	21.11	6.67	17.14	0.99	684.2807018	207.9386766	50624	23.68339304	13.45393727
2008	130	12.22	7.78	11	0	179.5649123	103.4197508	50751	23.66613596	12.42737358
2008	131	18.33	6.67	15.12	0.05	518.9263158	381.7740745	50877	23.21340848	11.92313704
2008	132	16.11	1.11	11.99	2.35	518.3789474	224.9838091	51000	22.80074403	11.17284729
2008	133	10	2.22	7.86	0	242.4	137.1146753	51122	22.03464572	9.69537776
2008	134	22.22	7.22	18.1	0.015	743.0105263	575.66657	51241	21.70284333	10.69192986
2008	135	21.67	10	18.46	0.115	628.645614	288.7484787	51358	21.73207372	11.40718866
2008	136	22.78	8.89	18.96	1.31	738.0280702	415.42063	51473	21.60811411	12.67593647
2008	137	11.11	5.56	9.58	0.02	201.5017544	65.09788637	51586	21.21717763	11.70092579
2008	138	18.89	6.67	15.53	0.61	550.5192982	216.2368985	51697	21.68857529	11.0330372
2008	139	15.56	4.44	12.5	0.05	428.0421053	237.6770903	51805	22.18335122	10.98326188
2008	140	12.78	4.44	10.49	0.98	301.1508772	339.9484532	51910	21.98974167	10.40959086
2008	141	12.78	6.11	10.94	0.47	256.322807	149.9177425	52014	21.89338815	9.8043397
2008	142	15	6.11	12.56	0.12	359.3473684	293.1333174	52114	21.7171656	9.81071847
2008	143	13.33	6.67	11.5	0	264.9403509	380.6849009	52212	20.77339497	10.479
2008	144	18.89	6.11	15.38	0	564.2736842	492.9032541	52308	20.68110857	10.6269
2008	145	21.67	6.11	17.39	0	731.9578947	534.8152045	52400	21.02097882	11.6237
2008	146	23.89	9.44	19.92	0	801.9157895	588.2330913	52490	20.6694181	12.2053
2008	147	29.44	13.89	25.17	0	1131.242105	493.8791628	52577	20.02083722	13.4837
2008	148	27.22	7.22	21.72	0	1109.866667	331.4492741	52662	20.05465056	15.0449
2008	149	19.44	6.11	15.78	0	596.3157895	589.7988995	52743	19.8036862	13.4458
2008	150	24.44	8.33	20.01	0	871.8105263	575.2282476	52821	19.70674752	12.6826
2008	151	26.11	12.22	22.29	0.22	889.5859649	463.3561333	52896	20.27276672	13.0731
2008	152	27.22	17.78	24.62	0	745.4877193	356.6168291	52969	20.08468141	14.474
2008	153	25.56	10	21.28	0	913.1789474	490.0749978	53038	19.76327191	15.1535
2008	154	25	13.33	21.79	0	757.5298246	547.8393135	53103	19.46188689	14.1676
2008	155	27.78	15	24.26	2.01	930.4982456	382.7781087	53166	18.38277808	14.4187
2008	156	21.11	17.78	20.19	0.15	232.4	90.92055888	53225	18.64758274	15.2372
2008	157	28.33	19.44	25.89	0	758.1894737	349.5148782	53281	18.41790954	16.6388
2008	158	32.78	20.56	29.42	0	1181.515789	530.0017723	53334	18.05957077	18.3381
2008	159	33.33	23.33	30.58	0	1067.480702	522.1636996	53383	17.5825114	18.9319
2008	160	32.22	22.78	29.62	0	969.2842105	433.6022586	53429	17.20444083	19.439
2008	161	33.89	21.67	30.53	1.09	1251.333333	551.3121458	53471	18.76809314	19.7055
2008	162	32.22	15.56	27.64	0.11	1357.122807	413.4093409	53510	19.17457065	19.1786
2008	163	28.33	16.11	24.97	0	934.1684211	582.1161018	53546	18.75570961	18.2842
2008	164	30.56	17.78	27.04	0.04	1079.873684	552.0433484	53577	18.35064698	18.0608
2008	165	31.67	19.44	28.31	0.065	1115.017544	442.8061252	53606	18.26314781	18.3035
2008	166	25	15.56	22.4	0.005	661.0736842	182.7843015	53630	17.12025534	18.4647
2008	167	27.22	16.67	24.32	0.68	803.0315789	555.3074855	53651	16.76559638	18.1114
2008	168	26.67	13.89	23.15	0.82	875.8596491	359.816756	53669	17.66555158	17.3479
2008	169	19.44	13.33	17.76	0.14	352.6877193	304.6858765	53682	18.67489779	15.8738
2008	170	18.89	8.89	16.14	0	487.4385965	234.6109382	53693	18.24896922	14.9981
2008	171	20	11.11	17.56	0	480.1614035	346.158155	53699	17.8349594	14.2679
2008	172	26.11	13.33	22.6	0	849.5789474	475.8327593	53702	17.03539826	15.091
2008	173	28.33	15	24.67	1.01	982.3789474	523.4232874	53701	16.38916945	16.1344
2008	174	26.67	15.56	23.61	0.03	805.2491228	549.0393442	53696	16.22145624	17.0247
2008	175	25.56	12.78	22.04	0.1	823.9719298	487.6403991	53688	16.79614446	16.8817
2008	176	25	13.33	21.79	0	757.5298246	430.7780794	53676	16.51346575	16.26958909
2008	177	27.22	15	23.86	0.15	879.6982456	446.2551336	53661	15.6413441	16.56625418
2008	178	28.33	18.33	25.58	1.2	822.3719298	309.2867097	53641	15.87012655	17.48824787
2008	179	26.67	19.44	24.68	0	595.7403509	281.0246049	53619	15.84608388	18.06976164
2008	180	28.89	18.89	26.14	0.04	847.0035088	353.5374108	53592	15.43183429	19.1657
2008	181	27.22	17.22	24.47	0.14	774.9263158	312.0303465	53562	14.27014638	18.4267
2008	182	25.56	15.56	22.81	0	708.1122807	420.9874798	53529	13.9962467	18.1809
2008	183	22.78	13.33	20.18	0	584.9122807	303.0586596	53491	13.70577061	17.3705
2008	184	27.22	15	23.86	0.02	879.6982456	566.1027396	53451	13.39907778	17.0144
2008	185	25.56	18.33	23.57	0.02	561.3684211	233.8095734	53407	13.64835846	16.9899
2008	186	23.89	17.78	22.21	2.12	450.7157895	201.996072	53359	13.50663522	17.2932
2008	187	24.44	16.11	22.15	0	587.5438596	259.0531624	53308	13.48462162	17.5128
2008	188	27.78	17.22	24.88	0.01	827.3754386	373.8814819	53254	15.33927766	18.163
2008	189	27.22	18.89	24.93	0	682.4421053	299.9903112	53196	16.20220706	18.9042
2008	190	30.56	18.89	27.35	0.44	1022.140351	507.3790075	53135	16.25071218	19.4783
2008	191	26.67	16.11	23.76	0	779.2982456	191.951944	53071	16.40886111	19.3417
2008	192	26.67	15	23.46	0	829.9649123	569.7669536	53004	16.02905286	18.8821
2008	193	28.33	16.67	25.12	0	908.1964912	476.678136	52933	15.00846046	18.3417
2008	194	31.11	19.44	27.9	0.33	1052.449123	524.6926918	52860	14.86538813	19.2777
2008	195	27.78	17.22	24.88	0	827.3754386	358.585225	52783	14.70861912	19.9216
2008	196	26.67	15.56	23.61	0	805.2491228	526.3493145	52703	14.69547795	19.2785
2008	197	28.33	16.11	24.97	0	934.1684211	564.638717	52620	14.17098353	18.4115
2008	198	31.11	17.22	27.29	0	1166.105263	561.3198873	52535	14.42666693	18.6985
2008	199	31.67	20	28.46	0.12	1083.508772	442.5040035	52446	14.48174819	19.5131
2008	200	32.22	21.11	29.17	0	1081.25614	416.0354601	52355	13.56566021	20.2552
2008	201	31.67	20	28.46	0.385	1083.508772	521.6179433	52261	14.19664962	20.5619
2008	202	32.22	18.89	28.56	0.005	1208.421053	411.9994035	52164	15.06528973	20.1119
2008	203	29.44	18.33	26.39	0.4	934.6666667	407.7012752	52065	13.71151917	20.2837
2008	204	28.89	19.44	26.29	1.29	814.6315789	417.8864781	51963	14.9115811	20.2132
2008	205	23.33	15	21.04	1.04	552.8491228	135.0205737	51858	15.32208169	19.136
2008	206	25	14.44	22.1	0	711.6350877	348.9258654	51751	14.1507067	18.1667
2008	207	27.78	15.56	24.42	0	906.5894737	537.24806	51642	14.59395109	18.37113238
2008	208	28.33	18.33	25.58	0	822.3719298	436.2145628	51530	14.43511429	18.89419152
2008	209	27.22	15.56	24.01	0	855.3824561	490.6512277	51417	13.56674398	18.8648
2008	210	28.89	17.22	25.68	0	935.6210526	495.068513	51300	14.17446383	18.6252
2008	211	30	17.78	26.64	0.52	1021.207018	478.1304312	51182	14.0187764	19.1446
2008	212	29.44	18.33	26.39	0	934.6666667	332.7148624	51062	13.69232976	19.0567
2008	213	28.89	17.78	25.83	0	907.4596491	466.8737199	50939	13.5732024	19.8767
2008	214	28.33	18.89	25.74	0.01	791.0035088	489.7133003	50815	13.46253697	19.5757
2008	215	27.78	16.11	24.57	0	881.4526316	405.3909207	50688	13.24605857	19.5663
2008	216	25.56	15	22.65	0	733.6140351	403.2089845	50560	13.02556115	18.7858
2008	217	27.78	16.67	24.72	0.1	855.0596491	480.3117008	50430	13.02352204	18.5592
2008	218	24.44	19.44	23.07	0.39	394.4982456	147.0809309	50298	13.33310692	18.8745
2008	219	28.89	16.67	25.53	0.05	962.4561404	531.9311105	50164	13.21327865	19.74
2008	220	26.67	14.44	23.31	0.1	853.4947368	348.9732666	50029	12.67940306	18.6009
2008	221	23.89	12.22	20.68	0	712.2807018	436.2661605	49892	12.971409	17.7787
2008	222	24.44	13.89	21.54	0.02	690.2175439	513.7329802	49754	13.03277719	17.4636
2008	223	25	14.44	22.1	0.04	711.6350877	470.7203884	49614	12.98293672	17.3252
2008	224	21.67	14.44	19.68	0	453.9789474	312.7705826	49472	13.58438197	16.938
2008	225	24.44	12.78	21.24	0	734.6105263	409.426409	49330	14.05792775	17.2758
2008	226	27.78	13.89	23.96	0.55	974.7929825	429.2957336	49186	14.3278417	17.4137
2008	227	25.56	15.56	22.81	0	708.1122807	329.5942515	49040	14.30159717	17.7577
2008	228	25.56	12.78	22.04	0	823.9719298	439.8335024	48894	14.08155389	17.6398
2008	229	25.56	14.44	22.5	0	757.9157895	484.6411791	48746	13.97534869	17.2314
2008	230	27.22	15	23.86	0	879.6982456	478.800567	48597	13.75831424	17.4301
2008	231	29.44	17.22	26.08	0	991.4596491	518.036013	48446	12.97024976	17.5426
2008	232	26.11	10	21.68	0	957.4807018	373.5842578	48295	12.51460892	18.17088083
2008	233	25.56	11.11	21.58	0	880.4421053	556.4420704	48143	12.40697662	17.2790033
2008	234	29.44	12.78	24.86	0	1168.575439	534.7071961	47990	12.25788883	16.8994142
2008	235	30	16.11	26.18	0	1099.087719	526.7149864	47836	15.002515	18.09924264
2008	236	27.78	17.78	25.03	0	798.3508772	485.3607573	47681	15.43893596	18.1656
2008	237	31.11	18.89	27.75	0.13	1082.968421	466.5665764	47525	15.15793269	17.8722
2008	238	27.78	12.78	23.65	0	1014.603509	522.7203322	47368	16.5070038	19.12476837
2008	239	26.11	13.33	22.6	0.003895833	849.5789474	518.6820102	47210	18.04322225	17.93329779
2008	240	26.67	13.89	23.15	0.634125	875.8596491	428.637394	47052	18.112247	18.0577
2008	241	17.78	15.56	17.17	0.228345833	133.9719298	84.23297783	46893	17.97716697	16.794
2008	242	21.11	16.67	19.89	0	298.2175439	150.2490872	46734	17.69444287	17.1087
2008	243	27.22	12.22	23.1	0	984.1192982	300.8209306	46573	17.37070562	18.1899
2008	244	27.22	13.33	23.4	0	945.6491228	532.5863855	46413	17.0157996	17.8624
2008	245	26.67	12.78	22.85	0	917.2561404	536.3699008	46251	16.67870951	17.6892
2008	246	29.44	14.44	25.32	0	1110.919298	523.7450902	46089	16.38745031	17.7469
2008	247	30.56	15.56	26.43	0	1179.347368	503.5343914	45927	16.15251047	18.3305
2008	248	31.67	16.11	27.39	0	1274.596491	476.7370566	45764	15.95179698	18.6708
2008	249	31.11	20.56	28.21	0.05584375	986.9403509	447.4569805	45600	15.78744669	19.4007
2008	250	22.78	12.78	20.03	0.001297917	607.6070175	101.9047052	45437	15.59210893	18.9658
2008	251	25	13.89	21.94	0.002595833	735.1508772	415.8480758	45272	15.3506955	18.3761
2008	252	26.67	13.89	23.15	0.62999375	875.8596491	473.1556643	45108	15.17528647	17.8399
2008	253	20	9.44	17.1	0.0122	537.7473684	102.620273	44943	15.7516308	17.4103
2008	254	21.11	10.56	18.21	0.00726875	572.877193	480.432658	44778	17.21760839	16.3868
2008	255	20.56	13.33	18.57	0.68049375	426.7087719	299.5629489	44613	19.04936027	15.9576
2008	256	21.11	18.33	20.35	0.05988125	197.4105263	83.11984966	44447	20.34812069	17.0314
2008	257	24.44	19.44	23.07	0.0077875	394.4982456	198.4026175	44281	20.29649786	18.3756
2008	258	29.44	18.89	26.54	0	904.1824561	369.6944269	44115	20.09400245	19.8711
2008	259	22.78	11.67	19.72	0	649.7964912	294.224129	43949	19.73648963	19.2716
2008	260	20	9.44	17.1	0.002595833	537.7473684	222.82053	43783	19.61662007	16.6902
2008	261	23.33	10	19.67	0	745.277193	468.0879463	43617	19.55978253	16.124
2008	262	21.11	7.78	17.44	0	656.7087719	436.2917886	43450	19.37552103	16.2686
2008	263	20.56	8.33	17.19	0	606.2245614	413.8601653	43284	19.21202096	15.258
2008	264	21.11	10	18.06	0.003895833	591.4526316	403.1932108	43117	19.08825663	15.3201
2008	265	24.44	10	20.47	0.002595833	827.4035088	401.8075588	42951	19.02259981	15.7372
2008	266	19.44	7.78	16.24	0	553.522807	187.1680105	42784	18.9152086	15.6573
2008	267	21.11	8.89	17.75	0	625.8315789	404.2231215	42618	18.75889935	15.1397
2008	268	23.33	9.44	19.51	0	761.6350877	453.0235282	42452	18.60560938	15.0747
2008	269	20.56	11.11	17.96	0.00519375	516.3438596	359.0923039	42286	18.48876708	15.1447
2008	270	17.78	12.22	16.25	0.307825	297.5859649	83.48709102	42120	18.44954166	15.1131
2008	271	21.11	16.67	19.89	0.688397917	298.2175439	143.7324865	41954	18.86950656	16.3412
2008	272	22.22	13.89	19.93	0.0077875	519.9087719	212.6278068	41788	19.0439095	17.3847
2008	273	20.56	10	17.65	0	555.0736842	265.3168003	41623	18.90905431	16.8216
2008	274	18.33	10	16.04	0.233795833	417.4245614	186.3790423	41458	18.82785673	15.1265
2008	275	15.56	8.33	13.57	0	320.5614035	170.1259968	41293	18.74617588	14.3559
2008	276	12.78	8.33	11.56	0	185.5578947	236.8332009	41129	18.60818301	13.2974
2008	277	15	5	12.25	0.103904167	388.154386	160.6151276	40964	18.59466259	12.5663
2008	278	14.44	6.11	12.15	0	332.6807018	226.3705373	40801	18.55343549	11.9124
2008	279	16.67	7.78	14.22	0.002595833	396.3438596	407.8936202	40637	18.45369132	12.4765
2008	280	16.67	2.22	12.69	0.0181875	526.7087719	366.8718959	40474	18.34567124	12.2566
2008	281	16.67	2.78	12.85	0.01688125	516.7719298	422.8260424	40312	19.44525771	11.5181
2008	282	16.67	7.22	14.07	0.035064583	412.7508772	213.3915265	40150	20.44377715	11.6013
2008	283	21.67	8.89	18.15	0	662.4070175	380.3018541	39989	20.43327937	13.8881
2008	284	21.11	6.11	16.99	0	696.8982456	412.4050062	39828	20.40799126	13.4292
2008	285	21.11	5.56	16.83	0	708.7719298	406.507059	39667	20.32594169	12.8417
2008	286	22.78	7.78	18.65	0	767.0315789	397.6044247	39508	20.30136725	13.0899
2008	287	25	8.89	20.57	0	899.6140351	299.6990576	39349	20.14637708	13.3288
2008	288	26.11	8.89	21.37	0	985.8385965	331.7521536	39191	20.09127107	13.8845
2008	289	23.33	12.78	20.43	0	649.0245614	306.2424235	39033	20.06064895	15.3048
2008	290	20	8.89	16.94	0	555.0877193	93.87389633	38876	19.97436166	15.1681
2008	291	12.22	2.78	9.62	0	316.6035088	150.1666355	38720	19.89869596	12.6492
2008	292	10.56	-1.11	7.35	0	324.5192982	281.5781685	38565	19.86797451	10.8618
2008	293	11.67	-1.11	8.15	0.003895833	365.1789474	400.6047789	38411	19.84349222	10.1693
2008	294	16.11	-0.56	11.53	0.002595833	541.9649123	356.5322414	38258	19.84196752	9.7247
2008	295	10.56	2.78	8.42	0	250.8	210.9543805	38106	19.84599407	9.9721
2008	296	9.44	0.56	7	0	256.554386	273.5772309	37955	19.81966739	9.794
2008	297	12.22	0.56	9.01	0	359.8245614	378.5928879	37804	19.75311776	9.366
2008	298	13.89	6.67	11.9	1.540483333	290.6175439	162.9325963	37655	20.1254416	9.2389
2008	299	14.44	3.33	11.39	0.005191667	400.4912281	41.91263614	37507	20.17370305	10.5562
2008	300	16.67	3.89	13.15	0	494.9824561	353.5821787	37361	20.60217976	10.0671
2008	301	8.89	3.89	7.51	0.007791667	161.8526316	244.5746877	37215	21.05822214	10.1711
2008	302	6.67	1.11	5.14	0.18833125	153.4105263	95.78993705	37071	21.3758545	8.7834
2008	303	4.44	-0.56	3.07	0.001297917	122.6666667	100.3100554	36928	21.60040081	6.9604
2008	304	8.89	-0.56	6.29	0	257.7403509	357.8629893	36787	21.50973221	7.2237
2008	305	18.33	3.33	14.21	0	592.1684211	340.1117452	36647	21.39162855	8.0435
2008	306	17.78	4.44	14.11	0	540.7368421	223.7576369	36509	21.28798755	9.8974
2008	307	9.44	3.89	7.92	0	182.1403509	181.3543932	36372	21.21137585	9.3421
2008	308	14.44	7.22	12.46	0	300.322807	249.5782207	36237	21.09366709	9.6882
2008	309	13.89	8.89	12.51	0.01	218.3298246	96.94850965	36103	20.94091315	10.2465
2008	310	18.33	8.89	15.74	0	454.7368421	248.7287141	35971	20.85558737	11.4036
2008	311	20	10	17.25	0	519.4947368	234.5499588	35841	20.77645361	12.2528
2008	312	21.67	9.44	18.31	0.24	645.9719298	298.1475165	35713	20.89056098	12.8647
2008	313	12.78	4.44	10.49	0	301.1508772	129.9425068	35586	21.22250181	11.7124
2008	314	8.33	1.67	6.5	0	195.6070175	141.7309761	35462	21.32075207	9.4715
2008	315	3.89	0.56	2.97	0	84.36491228	150.3922491	35339	21.51220076	8.0038
2008	316	4.44	0	3.22	0	111.4736842	119.4197512	35219	21.68176769	7.2899
2008	317	10	0.56	7.4	1.51	276.2175439	220.408961	35100	22.03983649	7.7467
2008	318	8.89	5.56	7.97	0	115.0035088	37.40595733	34984	22.60277153	8.0058
2008	319	11.67	8.33	10.75	0.59	135.8245614	91.56539857	34870	22.58041667	9.2228
2008	320	13.33	2.22	10.28	0.05	374.4701754	40.42265269	34759	22.38543594	9.9955
2008	321	5	0.56	3.78	0.04	115.4596491	110.6908441	34649	22.26148408	7.6199
2008	322	2.78	-3.89	0.94	0	137.4175439	115.1009892	34542	22.15724822	6.2385
2008	323	-0.56	-6.67	-2.24	0	103.4105263	207.8785651	34438	22.00471401	4.6741
2008	324	0	-5.56	-1.53	0	99.83157895	214.7846872	34336	21.92191286	3.8293
2008	325	3.89	-2.78	2.06	0.15	147.677193	122.3196527	34237	21.81137078	4.278
2008	326	-1.11	-6.67	-2.64	0	92.70175439	136.1117667	34140	21.7310152	3.8473
2008	327	-1.67	-6.11	-2.89	0	74.85614035	172.6019213	34046	22.26133518	2.9211
2008	328	2.78	-6.67	0.18	0.68	173.9508772	279.0656561	33954	22.72045876	2.9761
2008	329	2.22	-5.56	0.08	0.94	147.7754386	78.4923455	33866	23.19639793	2.7147
2008	330	3.89	0	2.82	0.05	96.26666667	156.6523061	33780	22.94716874	3.2445
2008	331	1.67	0	1.21	0	39.15789474	87.50968538	33697	22.70867931	3.4653
2008	332	5.56	-2.22	3.42	0	183.4526316	253.4639755	33618	22.47906489	3.6899
2008	333	5.56	-1.11	3.72	0	164.3087719	220.9828071	33541	22.70516816	3.3721
2008	334	5.56	-3.33	3.11	0.73	200.645614	257.9307924	33467	22.82885216	4.21277266
2008	335	3.89	0	2.82	0.41	96.26666667	24.90331927	33397	22.97833638	3.77012785
2008	336	6.11	0	4.43	0	159.4596491	115.7322153	33329	23.2976136	4.24236597
2008	337	2.22	-5	0.24	0	140.3578947	116.6824771	33265	23.4388375	4.04870233
2008	338	6.67	-4.44	3.61	0	246.7719298	261.297977	33204	23.01065397	3.56109242
2008	339	7.78	-3.89	4.57	0	272.2807018	28.01388771	33146	22.69438209	4.17042181
2008	340	-1.67	-8.33	-3.5	0	102.2736842	135.9323793	33092	22.31962654	1.3956
2008	341	-1.67	-8.33	-3.5	0.03	102.2736842	128.7813957	33041	22.64600537	1.2086
2008	342	-3.89	-9.44	-5.42	0	76.76491228	139.1650725	32993	23.61877915	0.9196
2008	343	-1.11	-8.89	-3.25	0	118.2526316	75.49130897	32949	23.04778202	1.4635
2008	344	11.67	-2.22	7.85	1.47	380.6105263	169.9334544	32909	23.64374062	4.2276
2008	345	12.22	-1.11	8.56	1.365	386.2526316	29.18443009	32872	23.67377327	3.7039
2008	346	1.67	-1.11	0.9	1.145	62.37894737	19.38298502	32838	23.528238	3.1025
2008	347	1.67	-6.11	-0.47	0	142.4561404	73.86144239	32808	23.23495418	1.9723
2008	348	-0.56	-6.11	-2.08	0	96.21052632	232.241691	32782	22.9996809	2.3513
2008	349	9.44	-1.67	6.39	0.265	294.477193	241.1983382	32759	22.67936644	4.2423
2008	350	13.89	-1.67	9.61	0.315	459.7824561	67.90706313	32740	22.38615771	3.6782
2008	351	1.11	-2.22	0.19	1.07	70.59649123	65.43598443	32724	22.22030447	3.1329
2008	352	3.33	-0.56	2.26	0	92.91929825	39.18570131	32712	22.15285834	3.2908
2008	353	2.22	-0.56	1.46	3.18	64.64561404	85.3470893	32704	22.18927341	2.7777
2008	354	5.56	-4.44	2.81	0.02	216	14.82786011	32699	22.09998894	2.3257
2008	355	-2.78	-5.56	-3.54	0.12	46.58245614	132.1266049	32698	22.51182678	1.6066
2008	356	1.67	-15.56	-3.07	0	214.0280702	175.0393108	32701	22.76086399	0.5447
2008	357	-7.78	-14.44	-9.61	0	66.78596491	250.8328168	32707	22.39747028	0.0158
2008	358	1.11	-11.11	-2.25	3.335	179.6561404	143.4426909	32717	22.51032983	0.3827
2008	359	9.44	-0.56	6.69	0.315	276.5824561	43.02292524	32731	22.41581265	0.3909
2008	360	0	-5.56	-1.53	0	99.83157895	166.6514724	32749	22.27295412	0.7944
2008	361	2.78	-4.44	0.79	0.36	145.5578947	176.0151134	32770	22.29855743	1.4542
2008	362	9.44	0	6.85	0.01	266.8421053	122.6651138	32794	22.1583214	2.2009
2008	363	12.22	0	8.86	0	369.1719298	136.9004529	32822	22.04741384	2.5531
2008	364	6.67	-1.11	4.53	0	196.8912281	248.2670096	32854	21.92065358	2.4567
2008	365	3.89	-1.11	2.51	0.08	118.4	251.7406846	32889	21.76048234	1.7015
2009	1	1.67	-9.44	-1.39	0	264.1864349	148.9266191	32928	22.17946299	0.6993
2009	2	-1.67	-9.44	-3.81	0	252.0662643	266.3646318	32971	22.18998242	1.0467
2009	3	5.56	-5.56	2.5	0	338.4527851	148.407526	33017	22.08622668	0.8682
2009	4	1.11	-7.78	-1.33	0	169.1340428	240.6296592	33066	21.92476808	0.9545
2009	5	3.89	-7.22	0.83	0.01	266.6382496	125.7023325	33119	21.81717711	1.7267
2009	6	3.89	-3.33	1.9	0.44	227.4430348	179.5136229	33175	21.6935983	1.2145
2009	7	0	-3.33	-0.92	1.83	50.3711006	34.05107786	33234	21.93605212	1.1963
2009	8	2.22	-3.33	0.69	0	165.2672999	34.38745094	33296	21.65841842	0.8092
2009	9	-2.22	-5.56	-3.14	0	139.4944835	137.3106752	33362	21.37118142	0.5152
2009	10	-2.78	-5.56	-3.54	0.955	49.44759858	203.0743691	33431	21.20233859	0.6086
2009	11	-0.56	-5.56	-1.93	0.095	108.3172789	50.55373266	33503	21.14492438	0.5707
2009	12	-3.33	-6.11	-4.1	0	119.1433274	119.4366562	33579	21.16626903	0.5672
2009	13	-0.56	-6.67	-2.24	0	110.799546	180.2037993	33657	21.13380664	0.6694
2009	14	0.56	-12.78	-3.11	0.085	98.79150683	89.44917626	33738	21.16844754	0.4134
2009	15	-7.78	-13.33	-9.31	0.165	98.60923509	183.6248482	33822	21.27185806	0.4423
2009	16	-8.89	-17.22	-11.18	0	94.76454865	188.6523371	33909	21.58619374	0.187
2009	17	-13.33	-18.89	-14.86	0	68.80729022	262.884974	33999	21.62463174	0.2013
2009	18	-6.67	-19.44	-10.18	0.23	44.73166455	205.7560984	34092	21.53842951	0.3135
2009	19	-3.33	-7.78	-4.56	0.04	102.9768209	111.0455661	34187	21.35381756	0.3012
2009	20	-4.44	-12.22	-6.58	0	118.3555004	191.0336955	34285	21.04051341	0.3069
2009	21	-3.89	-12.78	-6.33	0	155.8506765	147.9699517	34386	20.98321684	0.1377
2009	22	-4.44	-12.78	-6.74	0	150.5775132	245.0726865	34489	22.36015698	0.1823
2009	23	4.44	-5.56	1.69	0	233.9671771	293.2418133	34595	22.62825862	0.3783
2009	24	10.56	-2.78	6.89	0.00445	438.592215	275.4431917	34703	22.92368216	0.0462
2009	25	-1.11	-12.78	-4.32	0.018333333	108.7026327	184.6669932	34814	23.11114522	-0.1397
2009	26	-7.22	-12.78	-8.75	0.000683333	107.2715216	128.5337599	34926	23.14520417	-0.4642
2009	27	-2.78	-10.56	-4.92	0.009583333	153.6160651	245.0883042	35042	22.9529652	-0.4003
2009	28	-2.78	-6.67	-3.85	1.365966667	67.40931715	132.1321024	35159	22.82587441	-0.3602
2009	29	1.67	-8.33	-1.08	0.008666667	211.3752309	54.83444544	35278	22.7284652	-0.4194
2009	30	-0.56	-8.33	-2.69	0.087966667	154.5088648	266.3242016	35400	22.59091624	-0.365
2009	31	0	-11.11	-3.06	0.001216667	203.5899768	189.2529719	35523	22.45036438	-0.3975
2009	32	-1.11	-11.67	-4.01	0	164.3049002	313.979725	35649	22.41120597	-0.2398
2009	33	9.44	-1.11	6.54	0.060466667	152.2796808	321.2822288	35776	22.77665833	-0.1387
2009	34	3.89	-4.44	1.6	0.004133333	147.6905964	67.77464404	35905	22.89546407	-0.2601
2009	35	1.67	-8.89	-1.24	0.09065	176.1774139	245.4816171	36036	22.71567499	-0.232
2009	36	-3.89	-16.11	-7.25	0.001	147.1429927	210.7043162	36169	22.58318397	-0.6465
2009	37	-7.22	-15.56	-9.51	0	139.7014676	350.8152565	36303	22.5225352	-0.5518
2009	38	3.33	-8.33	0.12	0	237.8874798	348.6420666	36440	22.49321879	0.028
2009	39	12.78	-2.78	8.5	0.000316667	419.5200398	211.018834	36577	22.51499834	-0.394
2009	40	10.56	-2.22	7.04	0	386.0580639	210.2760417	36716	22.46489551	-0.0532
2009	41	7.22	-2.22	4.62	0.157616667	200.2813618	330.9002215	36857	22.79636528	0.6116
2009	42	10	2.78	8.01	0.013283333	279.2561642	82.5873796	36999	23.29497742	3.2096
2009	43	16.67	5	13.46	0.499733333	600.4362025	252.5509846	37143	23.20336186	3.4667
2009	44	6.11	1.11	4.74	0.0026	318.3311801	84.28058705	37287	22.99859738	2.1164
2009	45	2.22	-0.56	1.46	0.107133333	167.2721316	70.19759102	37433	22.78871019	1.8728
2009	46	0.56	-5	-0.97	0.005033333	227.6195056	119.3761999	37581	22.6503462	1.8324
2009	47	2.22	-5.56	0.08	1.67E-05	272.1943102	340.7634785	37729	22.53220658	1.4489
2009	48	0.56	-7.78	-1.74	0	236.7528368	221.9448127	37879	22.5585127	1.0477
2009	49	3.33	-7.78	0.28	0.480608333	161.2265878	374.4182053	38029	22.83862154	0.9631
2009	50	4.44	-1.67	2.76	0.280633333	194.6061353	37.34750237	38181	23.32011048	0.7846
2009	51	2.22	-8.89	-0.83	0.008408333	251.1921475	185.6233207	38334	23.63175105	0.3255
2009	52	-3.89	-8.89	-5.26	0	223.1231013	219.3650314	38487	23.27081653	0.2299
2009	53	3.33	-7.22	0.43	0.093208333	260.7307378	381.526353	38642	23.20090016	0.1412
2009	54	0	-6.67	-1.83	0.049475	229.8927661	197.5896447	38798	23.06301801	0.1189
2009	55	-3.89	-11.11	-5.87	0	188.3726894	204.3501619	38954	22.8886781	-0.1918
2009	56	-0.56	-11.11	-3.46	0	249.314548	418.0428447	39111	22.83240089	0.1706
2009	57	8.33	-7.22	4.06	0.015366667	428.006074	403.8321105	39269	22.88077969	1.6315
2009	58	12.78	2.78	10.03	0.744733333	279.7922266	193.2492862	39428	23.07137249	2.6647
2009	59	12.78	-3.89	8.19	0.000133333	487.0341169	83.98632078	39587	23.55390349	2.5399
2009	60	1.67	-4.44	-0.01	0	345.0601914	346.5220002	39747	23.39592809	2.3802
2009	61	3.89	-8.33	0.53	3.33E-05	354.7241505	282.3341472	39907	23.2544065	1.2231
2009	62	-5.56	-13.89	-7.85	0	201.4583111	332.4521157	40068	23.10729171	0.2969
2009	63	-2.22	-13.89	-5.43	0	249.8397379	444.7236368	40230	22.99041585	0.17
2009	64	2.78	-11.11	-1.04	0	353.4684994	450.1751326	40392	22.78910004	1.0508
2009	65	11.67	-7.22	6.47	0	543.6752737	430.2774109	40555	22.79581935	3.753
2009	66	20	8.33	16.79	0.004733333	744.2677937	290.0186306	40718	22.75500573	6.2834
2009	67	21.67	12.78	19.22	0.840566667	457.0879083	170.6383996	40882	22.80008334	7.2016
2009	68	15	6.11	12.56	0.508116667	356.2603444	43.68136159	41046	23.12323393	6.0916
2009	69	10	1.67	7.71	0.06885	242.4558126	115.8432025	41210	23.48976728	4.6673
2009	70	7.22	2.22	5.85	0.024183333	404.9297895	76.48230685	41375	23.55980723	5.6859
2009	71	17.22	-2.78	11.72	3.33E-05	795.2153365	382.6800915	41540	23.56965317	4.3256
2009	72	2.78	-5	0.64	0	319.2155879	311.8485334	41705	23.53297294	3.8877
2009	73	6.67	-5	3.46	0	326.2932209	458.2364378	41870	23.31452987	4.4922
2009	74	11.11	-1.11	7.75	0	333.8742675	383.1196646	42036	23.35448702	5.789
2009	75	13.89	2.22	10.68	0.651216667	274.9745386	385.1912288	42202	23.5001205	5.9137
2009	76	11.67	3.33	9.38	0.127316667	267.5401823	122.9820788	42368	23.99252945	6.1281
2009	77	12.78	2.78	10.03	0	448.9978894	251.8459513	42534	23.94119543	6.9607
2009	78	22.78	3.89	17.58	0.003683333	1053.709672	427.3700862	42701	23.7233129	7.6341
2009	79	12.78	-2.22	8.65	0.004033333	629.3741589	316.2247729	42867	23.69080063	5.3979
2009	80	6.67	-6.11	3.15	0	449.3988361	332.6508744	43033	23.53573887	4.4512
2009	81	8.33	-6.11	4.36	0	434.1245019	400.9919101	43200	23.26522831	4.8576
2009	82	12.22	-3.33	7.94	0	772.7372812	349.9908474	43366	23.45433323	5.0747
2009	83	7.78	-6.67	3.81	0	602.8603107	522.2039271	43533	23.3023441	4.6961
2009	84	8.89	-6.11	4.76	0.000116667	618.5631465	505.8527924	43699	23.1888728	4.4778
2009	85	10	2.22	7.86	1.215633333	109.8442733	255.4958726	43865	23.28375094	4.7313
2009	86	5.56	1.67	4.49	0.001033333	272.2866165	44.96531238	44032	23.39861746	6.1947
2009	87	14.44	2.78	11.24	0.335508333	168.8633258	396.013905	44198	23.39489714	7.0184
2009	88	12.22	7.22	10.85	0.7059	227.6366565	88.83260866	44363	23.39383802	7.2037
2009	89	10.56	1.11	7.96	0.068941667	343.3438813	143.5124452	44529	23.3474026	5.6595
2009	90	3.89	0	2.82	0	353.6276041	157.9765179	44695	23.242657	6.5893
2009	91	16.11	0.56	11.83	0.710925	256.8713881	502.1693005	44860	23.2695899	6.6883
2009	92	8.89	6.11	8.13	0.019375	314.3319836	104.8415425	45025	23.64928864	8.6533
2009	93	18.89	6.67	15.53	1.815816667	278.580352	457.0469304	45190	23.72142755	9.4892
2009	94	15.56	3.33	12.19	0.02295	640.2511348	78.68845431	45354	23.9673188	7.8102
2009	95	8.89	2.22	7.06	0	645.7900798	370.987003	45518	24.01531925	8.4456
2009	96	18.89	2.78	14.46	0.451816667	490.0568742	520.7510143	45681	24.15913823	8.6383
2009	97	12.22	-1.11	8.56	0.01775	442.7006644	174.8852091	45845	24.39710289	6.2266
2009	98	3.89	-0.56	2.67	0.001783333	422.2031368	241.4112168	46007	24.08115334	6.1648
2009	99	10	-0.56	7.1	0	604.6907822	349.1250398	46169	23.92499442	6.8093
2009	100	15	1.11	11.18	0.184116667	399.0540823	538.7172023	46331	23.70708046	6.6695
2009	101	9.44	3.89	7.92	0.205133333	503.8963151	101.9770144	46492	23.50166272	7.8833
2009	102	12.78	-1.11	8.96	0	778.1438675	441.7033574	46653	23.31480148	7.0921
2009	103	10	-2.78	6.49	0.000966667	547.4747602	568.7578757	46813	23.17148982	6.5666
2009	104	12.78	-1.11	8.96	1.050633333	119.0061886	366.7110362	46972	23.60886511	6.5834
2009	105	7.78	5	7.01	1.37	116.3689887	46.10901222	47131	23.99655608	6.7217
2009	106	7.78	-0.56	5.49	0.000516667	416.5154791	127.0089983	47289	23.96047257	7.7127
2009	107	18.33	1.11	13.6	0	1103.46758	561.7441802	47446	24.18085201	8.8964
2009	108	21.11	4.44	16.53	0	1361.317267	567.7687734	47602	23.75348952	10.1198
2009	109	23.33	10.56	19.82	0.003033333	1347.874024	540.0012498	47758	23.49585469	10.6932
2009	110	20	5	15.88	0.924775	348.6805386	297.7876444	47912	23.40320182	8.7372
2009	111	7.78	4.44	6.86	0.536141667	175.0739881	73.80224379	48066	23.38099519	9.1634
2009	112	17.22	5	13.86	0.023133333	482.297071	306.0611119	48219	23.16568745	8.274
2009	113	11.11	2.22	8.67	0.143816667	464.8843314	330.1124555	48370	22.96826846	8.1495
2009	114	12.78	3.33	10.18	0.030466667	606.7031419	393.9781394	48521	22.65882298	9.1851
2009	115	23.89	5	18.69	0	1212.598359	434.3815851	48671	22.44086892	11.8547
2009	116	30	13.89	25.57	0	2066.634528	432.1862355	48819	22.12472093	13.72
2009	117	31.11	15	26.68	0	2221.143246	545.8243821	48966	22.12774053	14.9433
2009	118	32.22	16.67	27.94	0	1939.849546	541.1794312	49112	22.12486442	15.2874
2009	119	29.44	6.67	23.18	0.0001	1225.275917	494.0195019	49257	23.09723839	13.7594
2009	120	19.44	7.22	16.08	0.090716667	512.5185758	403.0670332	49401	22.7078702	12.0999
2009	121	17.22	11.11	15.54	0.344066667	329.7594936	118.7832805	49543	22.5002079	12.7498
2009	122	21.67	11.11	18.76	0.6231	726.5510594	233.6834902	49683	22.51505963	13.0874
2009	123	17.78	8.33	15.18	0.264616667	280.056739	326.5222745	49823	22.26062519	11.5943
2009	124	14.44	8.33	12.76	1.5003	146.8725817	177.8380092	49960	22.75394447	11.329
2009	125	11.11	9.44	10.65	0.673058333	196.1258044	78.73685062	50096	23.29396117	11.2122
2009	126	13.33	9.44	12.26	0.68195	211.5938044	128.2481743	50231	23.48656641	11.8595
2009	127	18.89	11.11	16.75	0.897275	522.6763283	231.2813271	50363	23.63576803	12.9371
2009	128	21.11	11.11	18.36	0.219233333	366.700773	327.0009759	50495	23.28386214	12.9298
2009	129	22.22	12.78	19.62	0.023866667	757.6694342	264.7754084	50624	23.05545998	13.9085
2009	130	24.44	8.89	20.17	0.001066667	1085.621956	308.7666999	50751	23.66985804	12.7381
2009	131	15.56	6.11	12.96	0.02545	368.7424103	262.9961515	50877	23.35885018	11.2035
2009	132	15.56	3.89	12.35	0.008583333	620.5911312	219.0380354	51000	23.21244766	11.1687
2009	133	16.67	4.44	13.31	0	702.4807696	485.5841102	51122	23.58904015	11.3917
2009	134	21.67	7.22	17.69	1.647083333	282.4456908	481.4579455	51241	23.69139836	12.292
2009	135	20	11.11	17.56	0.424166667	606.2392927	244.1129897	51358	23.44577821	13.5887
2009	136	24.44	11.11	20.78	1.875883333	472.1160068	506.9961236	51473	23.10786831	14.6767
2009	137	26.11	7.78	21.07	0.455283333	1279.800578	329.7628035	51586	22.77601685	13.5528
2009	138	15	3.89	11.94	0	799.4811004	502.5427261	51697	22.79601305	11.681
2009	139	15.56	2.78	12.04	0	674.835982	608.5060104	51805	23.62137374	11.4274
2009	140	22.22	5.56	17.64	0	1029.752062	602.5725166	51910	23.41448915	12.4494
2009	141	28.33	11.11	23.6	0	1433.767087	589.1760625	52014	24.16819198	13.3844
2009	142	29.44	13.89	25.17	0.00005	1243.95323	601.7772918	52114	24.06540262	14.1956
2009	143	28.89	15.56	25.22	0.097833333	798.0652995	451.671775	52212	23.49065795	14.8665
2009	144	27.78	15.56	24.42	0.219808333	616.3887921	355.0650273	52308	23.04505275	15.2608
2009	145	29.44	16.11	25.78	0.215925	1196.570604	388.7268851	52400	22.7490689	15.8024
2009	146	26.11	12.22	22.29	0.580183333	513.7200429	536.1220958	52490	22.36636313	13.9301
2009	147	12.78	9.44	11.86	0.1383	127.795897	93.22876328	52577	22.26787615	12.9135
2009	148	16.67	10.56	14.99	0.526358333	156.1560378	164.3709811	52662	21.98269598	14.1883
2009	149	22.78	16.67	21.1	1.356208333	345.4430767	233.1701795	52743	21.94317022	15.0792
2009	150	20	12.78	18.01	8.33E-05	761.5117931	186.5482859	52821	21.67548164	14.481
2009	151	21.67	10	18.46	0	917.7313413	548.1091345	52896	21.55677402	13.8389
2009	152	21.11	5	16.68	0.002316667	748.3944377	552.2417158	52969	21.61910865	13.0604
2009	153	22.78	8.33	18.81	0.405066667	391.0654887	481.3943661	53038	21.99514206	14.2583
2009	154	23.89	15.56	21.6	1.566466667	162.8550763	326.997777	53103	22.32002873	14.2315
2009	155	16.67	11.11	15.14	0.04065	320.1857322	55.18381962	53166	22.16858851	13.6781
2009	156	17.78	11.11	15.94	0.610183333	142.9780977	220.0746531	53225	21.87015586	13.4056
2009	157	14.44	12.22	13.83	0.05565	457.0342452	74.54518068	53281	21.4642468	14.4352
2009	158	24.44	12.78	21.24	0	781.4197036	561.6832771	53334	20.96811356	15.1165
2009	159	27.22	15.56	24.01	1.172641667	665.3370689	535.7187075	53383	20.62008239	16.0979
2009	160	27.78	18.33	25.18	0.816958333	607.6812536	394.6855014	53429	20.5951309	16.9924
2009	161	28.33	16.67	25.12	0.053866667	534.0691892	376.6617558	53471	20.17327716	16.8578
2009	162	25	17.78	23.01	0.770391667	246.4732931	325.7521362	53510	20.25138378	16.5695
2009	163	22.22	17.78	21	0.602158333	384.3381698	159.5538891	53546	21.11678568	16.9755
2009	164	23.89	16.11	21.75	0	696.7668218	269.3466874	53577	20.70612788	16.8919
2009	165	25	11.11	21.18	0.000166667	901.0650168	368.8677887	53606	20.50327484	16.381
2009	166	25	12.78	21.64	0	948.8202684	566.2213887	53630	20.07214883	16.1218
2009	167	26.67	15	23.46	0	568.0934847	557.6528485	53651	19.33141789	15.8287
2009	168	22.22	15.56	20.39	1.91045	280.2558962	190.1469882	53669	19.49780963	15.1406
2009	169	16.67	13.89	15.9	0.416083333	268.2314446	137.9804681	53682	20.28153438	15.3356
2009	170	21.67	15.56	19.99	0	551.8582417	218.5431163	53693	20.00571625	16.0705
2009	171	24.44	16.11	22.15	3.7643	322.3490787	344.0566872	53699	20.06598675	16.603
2009	172	24.44	16.67	22.31	0.360316667	646.0100973	147.6097267	53702	19.87175553	16.8768
2009	173	23.89	15.56	21.6	1.67E-05	828.393316	280.7304972	53701	19.61923028	17.2676
2009	174	27.22	15.56	24.01	0	1047.297317	407.7620354	53696	19.73584618	17.4711
2009	175	27.22	14.44	23.71	0.0001	1122.611537	564.58621	53688	20.09956079	17.6574
2009	176	29.44	16.11	25.78	0	996.8158224	585.1789557	53676	20.24872227	18.2792
2009	177	30.56	18.89	27.35	0.1578	778.0274218	512.7244819	53661	20.37412478	18.7016
2009	178	26.67	15.56	23.61	0	921.1815165	409.3980851	53641	19.99365747	18.2577
2009	179	26.67	15.56	23.61	0.036816667	359.5379371	499.1871548	53619	19.30129853	17.1052
2009	180	21.11	13.89	19.12	0.392533333	571.5133907	117.4544088	53592	19.39547845	17.4273
2009	181	26.11	15.56	23.21	1.373766667	317.4763943	493.6038863	53562	20.26207581	17.3888
2009	182	22.78	13.89	20.33	0.00705	384.479247	312.5860997	53529	20.81627508	17.1455
2009	183	24.44	15	21.85	1.606516667	292.929466	340.8269238	53491	21.35063556	17.2192
2009	184	22.22	15.56	20.39	0.00525	508.6422429	244.6762214	53451	21.12508818	16.8188
2009	185	22.22	15	20.24	0	843.0129499	315.8919581	53407	20.78280257	17.14274859
2009	186	23.33	11.11	19.97	0	777.5442578	474.419604	53359	20.41268876	16.61132385
2009	187	23.89	12.22	20.68	0	853.5576772	552.7291837	53308	20.1646587	16.41713736
2009	188	27.22	13.89	23.56	0	1176.476636	527.83652	53254	19.87389543	16.65085131
2009	189	26.11	11.67	22.14	0	808.670287	516.9902631	53196	19.60013228	16.17359383
2009	190	22.78	12.78	20.03	0	719.4379253	408.4791505	53135	19.30850678	16.2688571
2009	191	26.11	13.89	22.75	0	704.8211986	454.2059902	53071	19.10728195	16.4685858
2009	192	26.11	16.67	23.51	1.671016667	447.6598914	415.6082381	53004	18.8729945	17.05532807
2009	193	25.56	17.22	23.26	0.033116667	901.6685182	262.3239819	52933	19.27883774	17.54126486
2009	194	25	14.44	22.1	0.000566667	1029.287788	552.6378732	52860	19.50736038	16.83301225
2009	195	24.44	11.11	20.78	0.017533333	973.6450359	552.9410802	52783	19.84832057	16.05609835
2009	196	25	11.11	21.18	0.000616667	832.3341124	589.6628254	52703	20.11300264	15.99361108
2009	197	27.78	13.33	23.81	0.390866667	986.6266601	542.0143721	52620	19.72582079	18.19806903
2009	198	30	18.33	26.79	0.475958333	450.5324709	472.2900611	52535	19.22125865	17.15519242
2009	199	22.78	13.89	20.33	0.791058333	540.2532892	157.8793979	52446	18.74100977	16.85978217
2009	200	20.56	13.33	18.57	0.0065	532.8747459	292.9380131	52355	18.35495229	16.55046411
2009	201	23.89	14.44	21.29	0	675.0930108	442.6133965	52261	18.09115188	16.43010404
2009	202	26.11	15.56	23.21	0.097	693.6484257	383.2556076	52164	17.8342681	17.17708206
2009	203	25	15.56	22.4	0.500133333	372.1661505	391.6583554	52065	17.62258239	17.30868403
2009	204	25	16.67	22.71	2.318016667	320.5875517	255.4392864	51963	17.41749587	18.10018942
2009	205	25.56	17.22	23.26	0.1648	532.685326	274.7583399	51858	17.57845916	18.24125916
2009	206	26.11	15	23.06	0.383116667	481.6771529	420.372022	51751	17.80631612	17.8398258
2009	207	27.78	16.67	24.72	0.291816667	476.1631711	386.3589809	51642	17.51945946	18.22611073
2009	208	26.11	18.33	23.97	0	732.9878967	326.547668	51530	17.3748279	18.25451403
2009	209	27.78	17.22	24.88	0	788.7211924	460.8221155	51417	17.04024202	18.35676593
2009	210	28.89	18.33	25.99	1.169833333	256.614042	472.5359691	51300	16.76634203	18.5772
2009	211	22.78	18.33	21.56	0.069583333	508.5388685	164.3424579	51182	17.93105471	18.9577
2009	212	27.78	19.44	25.49	1.46685	246.626154	366.9988719	51062	17.76150284	18.9042
2009	213	22.22	16.67	20.69	0.0032	528.009103	122.9791714	50939	17.66913257	18.9525
2009	214	27.22	17.22	24.47	0.120166667	503.28073	508.1987355	50815	17.49394279	18.9751
2009	215	25.56	14.44	22.5	0	667.5599216	273.254343	50688	17.38839763	18.3585
2009	216	25.56	15.56	22.81	0	624.4665166	509.2764944	50560	16.97010199	18.2562
2009	217	28.33	16.67	25.12	0	756.4169314	495.7171623	50430	16.60582683	18.6079
2009	218	26.11	12.78	22.44	0	846.0942866	321.9611556	50298	16.12501405	17.4721
2009	219	25	12.22	21.49	0	668.5008427	429.5375428	50164	15.7752682	16.8196
2009	220	24.44	13.89	21.54	0.027166667	634.6702583	422.4349773	50029	15.57411772	17.2882
2009	221	26.11	16.11	23.36	0.42765	442.6475989	407.0265802	49892	15.48806136	18.6998
2009	222	29.44	20	26.85	0.216141667	806.3058002	245.7711502	49754	15.39238004	20.0201
2009	223	32.22	20	28.86	0.231791667	614.5217081	433.4097987	49614	15.19877637	19.6707
2009	224	27.78	18.33	25.18	1.749625	449.6914643	274.1841463	49472	15.07600182	19.138
2009	225	26.67	16.67	23.92	0.089208333	530.6079843	277.4792201	49330	15.47774493	18.9228
2009	226	26.67	17.78	24.22	0	626.9497425	466.5630041	49186	15.57856448	19.1792
2009	227	28.89	17.78	25.83	0	794.0750932	471.8056379	49040	15.54616526	19.5669
2009	228	30.56	19.44	27.5	0	901.5865104	516.699711	48894	15.45802737	18.9118
2009	229	31.11	20	28.06	0	1105.731535	511.0916548	48746	15.27556367	19.84415225
2009	230	32.78	20.56	29.42	0.431825	611.56991	519.9884883	48597	15.91260779	19.87823621
2009	231	30.56	20.56	27.81	0.015741667	676.9374703	352.1423597	48446	15.44641936	20.19729999
2009	232	29.44	20	26.85	0	749.152435	334.0828714	48295	15.48074654	20.24085172
2009	233	29.44	20.56	27	0.485283333	492.655685	359.5957366	48143	15.03612859	20.48701368
2009	234	26.67	18.89	24.53	0.001233333	559.8637232	285.7769766	47990	14.61766827	20.17931123
2009	235	26.67	17.78	24.22	0	846.3101499	300.0086025	47836	15.05753556	20.19953883
2009	236	25.56	14.44	22.5	0	576.5525923	430.6970264	47681	15.29334039	18.83772853
2009	237	25.56	14.44	22.5	0	667.7699726	382.0700192	47525	15.28136316	18.59346012
2009	238	27.22	16.11	24.17	0	897.3468059	505.7216895	47368	15.55803166	18.72600887
2009	239	28.89	17.22	25.68	0.02615	534.4074612	459.7992495	47210	15.56268747	18.97501116
2009	240	19.44	16.67	18.68	0.91275	219.3969411	127.8820285	47052	16.53656766	18.51298409
2009	241	20	16.67	19.08	2.108033333	330.555097	72.25766709	46893	16.85910327	18.73168953
2009	242	26.11	14.44	22.9	0	761.1388359	318.5740688	46734	16.72461756	18.07273289
2009	243	22.22	11.11	19.17	0	540.8998917	476.6894659	46573	16.51112114	16.85517795
2009	244	18.89	7.78	15.83	3.33E-05	474.5543285	395.0114636	46413	16.06885891	16.0903
2009	245	20.56	8.33	17.19	0	529.277754	534.9325926	46251	16.05968055	15.3264
2009	246	23.33	10	19.67	0	586.9153305	516.7183935	46089	16.43556558	15.6241
2009	247	23.89	10.56	20.22	0	627.404906	508.7480025	45927	16.45494393	16.1595
2009	248	25	12.22	21.49	0	667.4029684	503.4083048	45764	16.39346556	16.6252
2009	249	25.56	12.78	22.04	0	723.5662468	470.3606058	45600	16.19145059	16.6672
2009	250	25	13.89	21.94	0.009341667	385.7817956	449.9890553	45437	16.22831469	16.6683
2009	251	20	17.22	19.24	0.003408333	409.4359562	148.9286479	45272	16.19540543	16.8258
2009	252	22.22	16.11	20.54	0.000916667	474.4212481	206.975552	45108	16.38081566	16.8716
2009	253	22.78	15	20.64	0.013333333	708.5729684	234.2821664	44943	17.1156729	16.6283
2009	254	20	12.78	18.01	2.071841667	218.3804631	436.0612195	44778	17.03263576	15.0258
2009	255	15	12.22	14.24	0.056508333	192.5441047	61.47260377	44613	16.95532816	15.5549
2009	256	19.44	13.89	17.92	0	587.8569736	105.7599766	44447	16.99964029	16.748
2009	257	24.44	15	21.85	0	598.2023368	471.7023103	44281	16.9910494	16.9963
2009	258	23.89	13.89	21.14	0.00035	456.242422	324.4683815	44115	17.41797276	16.6792
2009	259	24.44	11.67	20.93	0	743.9274831	293.2977953	43949	18.77868005	16.2447
2009	260	19.44	11.67	17.31	0.010241667	315.1932069	382.062166	43783	19.43652982	15.3208
2009	261	16.11	13.89	15.5	0.014991667	481.6589997	78.55613486	43617	19.73194374	16.1643
2009	262	23.33	10	19.67	0	668.9773209	424.6025037	43450	19.52418794	15.469
2009	263	20	5.56	16.03	0	394.0091204	504.2357964	43284	19.37703273	14.609
2009	264	23.33	6.11	18.6	0	470.319669	412.6901409	43117	19.34203359	15.5835
2009	265	23.89	14.44	21.29	0.077166667	413.0755619	418.755032	42951	19.12903086	16.4487
2009	266	23.33	18.33	21.96	0.454383333	323.0048201	144.2244733	42784	19.09501661	17.5861
2009	267	26.11	17.78	23.82	0	550.8505766	283.3392152	42618	21.5978479	17.8292
2009	268	22.78	13.33	20.18	0	766.0699265	206.1362957	42452	21.50898663	16.6905
2009	269	20	12.22	17.86	2.91225	393.1857879	415.403895	42286	20.94874948	14.5851
2009	270	14.44	11.67	13.68	1.75345	97.59836475	65.27915814	42120	20.80708884	14.4364
2009	271	16.67	12.22	15.44	0.7834	392.4936873	141.427329	41954	21.25157559	14.0292
2009	272	20	11.11	17.56	0.0036	614.0463142	253.3884983	41788	20.28320149	13.2668
2009	273	13.89	10.56	12.97	0.002233333	474.1497003	78.41209338	41623	19.66320173	13.0697
2009	274	13.33	6.67	11.5	0	425.1628331	222.6588506	41458	20.33371516	11.957
2009	275	12.78	3.89	10.33	0.634591667	132.6601074	238.7033627	41293	20.87794124	11.3275
2009	276	15	5	12.25	0.372508333	279.36355	211.4318454	41129	20.87857473	13.0195
2009	277	18.89	7.78	15.83	0	395.4028318	356.4960875	40964	20.84333381	12.3299
2009	278	15.56	7.78	13.42	0	431.4231722	211.7780844	40801	20.81399942	12.1508
2009	279	15.56	4.44	12.5	0	370.5361453	293.2540067	40637	20.74821129	11.7107
2009	280	17.78	5	14.26	0.267583333	564.702324	366.6798058	40474	20.77869668	12.494
2009	281	13.33	7.78	11.81	0	466.8655743	211.8499094	40312	20.78150429	12.2181
2009	282	18.33	8.33	15.58	1.115225	171.0742548	338.2841523	40150	20.76284877	12.901
2009	283	17.78	11.67	16.1	0.475775	390.5188521	96.19678558	39989	20.8964109	13.0796
2009	284	14.44	5	11.85	0	373.7990604	204.2244674	39828	20.89300499	10.8208
2009	285	12.78	3.89	10.33	0	340.3996733	328.4332084	39667	20.81619667	9.8866
2009	286	9.44	3.89	7.92	0.005983333	283.6007623	131.7027135	39508	20.75018404	10.3433
2009	287	13.33	0	9.67	3.33E-05	252.7312396	151.2998535	39349	20.69287957	8.9638
2009	288	7.22	0.56	5.39	2.513708333	65.32204503	140.2523273	39191	20.83820708	7.7386
2009	289	3.89	-0.56	2.67	1.276416667	39.74306619	40.5377269	39033	21.5089183	6.4045
2009	290	1.67	0	1.21	0.679866667	44.46893486	102.3140526	38876	21.64428833	6.8531
2009	291	3.89	0	2.82	0.185891667	193.5736985	84.70653866	38720	21.55915006	7.6578
2009	292	10	-1.11	6.94	0	279.1027575	249.870226	38565	21.47408121	7.4812
2009	293	12.78	0	9.26	0	396.3782907	391.5737813	38411	21.6813306	8.9671
2009	294	19.44	6.67	15.93	3.33E-05	513.2498888	332.2389909	38258	22.25390296	10.0169
2009	295	21.11	7.78	17.44	0	743.1655047	271.7954755	38106	22.15777835	10.7995
2009	296	21.67	8.33	18	0.837983333	421.5513789	306.051281	37955	22.14504396	11.3438
2009	297	17.22	11.11	15.54	7.42895	347.2655167	113.6295597	37804	22.48890833	12.7494
2009	298	18.33	6.67	15.12	0	724.291248	132.3849311	37655	22.80183438	11.3364
2009	299	15	2.78	11.64	0	419.3229011	355.4718294	37507	22.76456538	10.2235
2009	300	15.56	3.33	12.19	0.064833333	201.9614038	332.7975208	37361	22.7133638	10.2742
2009	301	13.33	7.78	11.81	1.282408333	131.5099396	132.5736661	37215	23.25545634	11.3719
2009	302	15	11.11	13.93	4.17E-05	246.9586021	80.55890521	37071	23.0390868	11.7824
2009	303	13.33	10	12.42	0.013566667	246.492101	76.48735869	36928	22.84663272	11.5071
2009	304	14.44	11.11	13.53	0.110216667	391.4013184	57.10508958	36787	22.69643962	11.711
2009	305	16.67	5.56	13.61	0	645.7503674	56.66360026	36647	22.69121183	10.712
2009	306	11.67	-0.56	8.31	3.33E-05	308.9746219	290.2174434	36509	22.58118947	9.4328
2009	307	12.78	0	9.26	0.032983333	442.227101	331.0563372	36372	23.12318916	9.2939
2009	308	12.22	-1.11	8.56	0.001616667	384.6979668	267.7663567	36237	22.86187045	7.9766
2009	309	7.78	-1.11	5.33	0.077083333	213.3716827	188.0754613	36103	22.66469274	7.6192
2009	310	7.22	0.56	5.39	0	391.6988879	110.2075271	35971	22.53354991	7.1902
2009	311	7.78	-2.22	5.03	0	335.0895566	325.1839367	35841	22.43293527	6.955
2009	312	13.33	-2.22	9.06	0	394.3304765	296.1657935	35713	22.42617047	8.9187
2009	313	21.11	5.56	16.83	0	457.0171514	305.0861988	35586	22.54476532	9.4553
2009	314	19.44	5.56	15.62	0	543.8915295	183.5394556	35462	22.83024791	9.9797
2009	315	14.44	5.56	12	0.015083333	742.7692553	134.2706451	35339	22.76225255	9.3092
2009	316	10.56	2.22	8.26	0	635.896958	167.3024559	35219	22.59923491	8.5269
2009	317	10	2.78	8.01	6.67E-05	609.4263692	180.2243277	35100	22.61581888	9.5785
2009	318	15.56	5	12.65	0.003733333	362.9603322	262.088061	34984	23.11904581	10.8306
2009	319	14.44	4.44	11.69	1.67E-05	298.1035457	128.8248392	34870	23.34390231	10.6977
2009	320	19.44	5.56	15.62	0	734.7430277	266.919515	34759	23.31994833	10.79
2009	321	12.78	5.56	10.79	0	794.3924701	279.0205687	34649	23.10787121	9.6247
2009	322	8.89	2.78	7.21	0	365.799792	97.36148591	34542	22.76676582	8.6742
2009	323	10	4.44	8.47	1.212533333	110.5722992	167.3496508	34438	22.88886338	9.4758
2009	324	11.11	6.11	9.74	0.043433333	439.1936874	52.90658349	34336	23.08047459	9.5158
2009	325	10	5	8.62	0	315.3315028	184.2346544	34237	22.96800957	9.039
2009	326	10.56	5	9.03	0	191.8939447	112.1602801	34140	22.36045656	7.9979
2009	327	8.33	3.89	7.11	0.046891667	215.7106532	77.59897897	34046	22.88116592	8.1253
2009	328	9.44	4.44	8.07	0.679641667	79.92162581	89.31061399	33954	22.99058892	8.8462
2009	329	9.44	6.67	8.68	0.029666667	100.914755	73.49639797	33866	23.04086547	9.0603
2009	330	10.56	2.22	8.26	0.4603	98.29357923	89.14605133	33780	24.02749855	8.4058
2009	331	10	2.22	7.86	0.246758333	323.7376413	135.0478038	33697	23.58902382	7.2254
2009	332	5.56	1.67	4.49	0.036091667	219.0044832	97.07390796	33618	23.32530471	6.1962
2009	333	5	0	3.62	0	273.8465278	93.92645099	33541	23.16780553	6.6002
2009	334	16.11	0.56	11.83	0.126091667	443.3355542	244.0706692	33467	22.98909339	7.7687
2009	335	11.11	-0.56	7.9	0.000958333	346.3394737	60.97066011	33397	22.26759288	5.7942
2009	336	6.11	-2.22	3.82	0.656725	74.259888	114.8741856	33329	21.96509407	5.1591
2009	337	12.78	-1.67	8.81	0.898241667	269.6985342	65.98330239	33265	22.86812981	7.1015
2009	338	11.67	2.78	9.22	0.00245	404.3970804	55.96793984	33204	22.69359864	6.0143
2009	339	5	-1.11	3.32	0.464875	103.075495	135.4292551	33146	22.56152539	4.6376
2009	340	0.56	-3.89	-0.67	0.001691667	169.5391919	37.59084603	33092	22.54325067	4.089
2009	341	0.56	-5.56	-1.12	0.002908333	114.5965167	272.6776057	33041	22.46699508	3.3154
2009	342	1.11	-5.56	-0.72	0.000591667	191.6584817	85.45399374	32993	22.40964707	4.0987
2009	343	3.33	-1.11	2.11	3.267383333	93.08141013	209.4953781	32949	22.43110567	3.8168
2009	344	6.11	-3.33	3.51	0.002883333	362.2057389	148.5790103	32909	22.36216052	2.9056
2009	345	-2.22	-10	-4.36	1.67E-05	241.5653984	160.0299361	32872	22.06605332	1.9316
2009	346	-2.78	-9.44	-4.61	0	243.8525446	196.0180142	32838	21.96554273	1.6472
2009	347	2.22	-5.56	0.08	1.664683333	137.7923547	264.3302195	32808	21.98502689	2.0308
2009	348	5	-0.56	3.47	0.000416667	126.5436996	49.05054771	32782	21.97308533	2.7419
2009	349	7.78	2.78	6.4	0.1445	169.7839001	125.89785	32759	21.83981347	3.3692
2009	350	7.78	-3.89	4.57	0.01185	351.5186021	50.70731814	32740	21.69277735	2.3617
2009	351	-1.11	-7.22	-2.79	0.001183333	194.6349855	224.5416285	32724	21.7478814	1.4807
2009	352	-1.67	-6.67	-3.04	0	190.6060358	203.5037996	32712	22.47949345	1.5458
2009	353	0	-6.67	-1.83	0.758841667	69.38089985	171.0439336	32704	23.04895836	1.6344
2009	354	-4.44	-7.22	-5.21	0.020958333	141.3702265	59.51822692	32699	22.97351744	1.8931
2009	355	0	-6.11	-1.68	0.001766667	163.3830332	240.2321442	32698	22.86630161	2.0431
2009	356	0.56	-3.33	-0.51	0.00515	181.8306143	192.2313794	32701	22.80607071	2.1358
2009	357	1.11	-9.44	-1.79	0	198.3102232	110.0372964	32707	22.52963722	1.3287
2009	358	-1.67	-9.44	-3.81	0	130.5850733	265.4384244	32717	22.51449706	1.1827
2009	359	0	-5.56	-1.53	0.436566667	66.77951248	260.7809063	32731	22.79213501	1.4195
2009	360	6.11	-1.67	3.97	2.204083333	54.83178188	41.28898646	32749	24.63847094	2.4908
2009	361	6.67	-2.78	4.07	0.003083333	160.2968077	48.71245244	32770	24.06224623	3.1649
2009	362	5	-2.78	2.86	0.011341667	256.0515326	188.7156566	32794	23.34507801	2.0939
2009	363	-2.22	-7.78	-3.75	0.049575	202.1849359	126.391619	32822	23.04232772	0.9039
2009	364	-4.44	-9.44	-5.82	0	146.7228171	218.6143738	32854	22.77840424	0.7175
2009	365	-1.67	-9.44	-3.81	0.426108333	66.96507975	168.0734768	32889	22.4913887	0.8189
2010	1	0	-3.89	-1.07	0.021008333	111.5198336	81.71807618	32928	22.36788531	0.9966
2010	2	2.78	-7.78	-0.12	0.079366667	216.0043044	106.0406765	32971	22.20611061	0.6575
2010	3	-6.67	-11.11	-7.89	0.004641667	118.5879497	171.884121	33017	22.05208059	0.3803
2010	4	-6.11	-10.56	-7.33	0.005375	120.014054	79.6672527	33066	21.92850418	0.1784
2010	5	-3.89	-7.78	-4.96	0.004258333	132.4565973	103.2753586	33119	22.00033782	0.1103
2010	6	-2.78	-7.78	-4.15	0.024658333	121.4258647	83.42089834	33175	22.11450899	0.1164
2010	7	-1.11	-3.89	-1.87	0.000208333	165.2800878	64.10930454	33234	22.11746261	0.1575
2010	8	-1.67	-6.11	-2.89	0.136158333	125.2094245	81.674895	33296	22.30076427	0.1628
2010	9	-4.44	-8.89	-5.67	0.005166667	176.6695034	201.5891839	33362	22.02584462	-0.0911
2010	10	-2.78	-13.33	-5.68	0	146.0890171	281.3135721	33431	21.78806002	-0.2455
2010	11	-4.44	-13.33	-6.89	0.016116667	127.458138	251.7358788	33503	21.8440768	-0.1574
2010	12	-2.22	-9.44	-4.21	0.00085	147.7534395	150.6942653	33579	21.66209067	-0.3782
2010	13	-2.22	-6.67	-3.44	0	169.3752225	198.9922776	33657	21.49598546	-0.0965
2010	14	0	-7.78	-2.14	0	186.0429463	169.7915923	33738	21.44480423	-0.2581
2010	15	7.22	-7.22	3.25	0	245.8080478	276.6938902	33822	21.47815193	0.316
2010	16	5.56	2.22	4.64	0	241.7271257	57.75381471	33909	21.58314664	0.9099
2010	17	9.44	-1.67	6.39	1.630925	67.46757635	164.5765147	33999	21.76140616	1.0253
2010	18	3.89	-1.11	2.51	0.043708333	129.5067224	25.51302764	34092	21.82975254	2.3815
2010	19	6.11	2.22	5.04	0.014733333	179.3813113	196.2637845	34187	21.69245553	2.2715
2010	20	4.44	-2.22	2.61	0	253.3243194	43.68275177	34285	21.90475164	1.8628
2010	21	1.67	-7.22	-0.78	0	178.2963888	158.5509533	34386	21.98901073	1.4443
2010	22	3.33	-6.67	0.58	0.065466667	242.7984897	284.1505759	34489	22.083156	2.087
2010	23	2.78	-4.44	0.79	0	267.359495	100.2280355	34595	22.2486097	2.058
2010	24	5	-5	2.25	1.057183333	142.2054918	287.3162792	34703	22.62926671	2.3595
2010	25	13.33	1.67	10.12	4.141916667	284.4608514	66.10911308	34814	23.12509804	5.3158
2010	26	11.67	-1.67	8	0.027716667	387.2378933	75.29520127	34926	22.92772663	3.1413
2010	27	0.56	-3.89	-0.67	0.003583333	234.7107231	170.686155	35042	22.99384566	1.921
2010	28	0.56	-3.89	-0.67	0.068183333	202.1964405	221.3244953	35159	22.84690692	1.2227
2010	29	1.67	-13.33	-2.46	0	232.2756603	186.8591463	35278	22.69473376	0.2589
2010	30	-7.22	-13.33	-8.9	0	153.0169118	267.3346739	35400	22.75450604	-0.0355
2010	31	-8.33	-13.89	-9.86	0	155.742414	137.3188575	35523	22.83295054	-0.5622
2010	32	-2.22	-13.33	-5.28	0	191.5766279	327.7089824	35649	22.92129333	-0.4899
2010	33	-1.11	-7.78	-2.94	0.048866667	149.8203472	249.8372121	35776	23.1085784	-0.113
2010	34	1.67	-6.67	-0.62	0.1417	138.2543235	164.9748847	35905	23.19884066	-0.1069
2010	35	1.11	-4.44	-0.42	0	282.8756916	109.8739339	36036	23.28911681	-0.209
2010	36	3.33	-4.44	1.19	0.297025	169.1546818	325.8434843	36169	23.25692259	0.1622
2010	37	1.11	-5.56	-0.72	1.478475	179.3266347	66.55165914	36303	23.16191935	0.1635
2010	38	-2.22	-15.56	-5.89	1.67E-05	140.014984	198.8502252	36440	22.91343333	0.2454
2010	39	-2.22	-14.44	-5.58	1.67E-05	135.2405321	358.3636885	36577	23.17948392	0.3665
2010	40	-1.67	-10.56	-4.11	0.08035	77.78833028	389.6370546	36716	23.16164196	0.624
2010	41	-2.22	-8.89	-4.06	0.891358333	61.59693208	128.0813124	36857	23.53126112	0.6113
2010	42	-2.78	-9.44	-4.61	0.002291667	139.1377205	101.2412718	36999	24.34986037	0.6271
2010	43	-1.11	-5.56	-2.33	3.33E-05	209.4065999	222.3804718	37143	24.97802424	0.6707
2010	44	1.11	-7.78	-1.33	0.000233333	211.6857332	329.7894437	37287	24.06269151	0.8091
2010	45	-3.33	-7.78	-4.56	0.014183333	137.1988201	187.1868257	37433	23.73962663	0.8286
2010	46	-1.11	-9.44	-3.4	0.297308333	119.729269	122.6613656	37581	23.51579451	0.8421
2010	47	0.56	-9.44	-2.19	0.084291667	165.7281876	215.4810558	37729	23.29941905	0.8869
2010	48	-1.11	-6.67	-2.64	0.011191667	161.4629869	241.765976	37879	23.26255793	0.983
2010	49	0.56	-5	-0.97	0.007591667	215.9663021	187.4344081	38029	23.16225483	1.0059
2010	50	2.78	0	2.01	0.000183333	320.3520665	263.3757766	38181	23.17983942	0.9184
2010	51	4.44	-3.89	2.15	0	334.1611361	293.3711976	38334	23.35445231	0.9541
2010	52	5	-3.89	2.56	0	409.1621616	225.9036672	38487	23.12168016	0.7643
2010	53	7.22	-3.33	4.32	0.125525	253.520992	396.9326552	38642	23.37463819	0.971
2010	54	4.44	-2.22	2.61	0.041291667	75.61425035	134.1661669	38798	23.68367114	1.0682
2010	55	3.33	-0.56	2.26	0	263.6064599	102.0625171	38954	24.32490798	1.2826
2010	56	2.78	-2.22	1.4	0.043733333	207.1322165	203.5185167	39111	24.13886762	1.0413
2010	57	0.56	-6.67	-1.43	0.315566667	120.0686571	217.2932823	39269	24.24237961	0.5739
2010	58	-2.22	-5.56	-3.14	0.068416667	119.7091058	129.2301013	39428	24.60433365	0.8096
2010	59	1.67	-3.89	0.14	0.043183333	187.3356345	265.6801207	39587	24.37619437	0.9287
2010	60	4.44	-1.11	2.92	0.008058333	233.5345711	245.5782109	39747	24.4024353	1.2026
2010	61	3.89	0	2.82	0.000425	243.5892452	161.4403939	39907	24.31951529	1.3465
2010	62	3.33	-0.56	2.26	0.048066667	207.0671659	177.9444746	40068	24.20944957	1.5542
2010	63	4.44	-2.78	2.46	0	394.4714723	113.0912099	40230	23.95725408	1.5009
2010	64	5	-2.78	2.86	0	426.5389723	429.7154686	40392	23.81971255	2.2503
2010	65	7.22	-5	3.86	0	483.723969	410.9399928	40555	23.71599337	2.7602
2010	66	9.44	-4.44	5.62	0	602.7230652	457.4310671	40718	23.58882373	3.4683
2010	67	10.56	-1.11	7.35	0	646.133554	451.1267187	40882	23.58875873	4.1717
2010	68	11.67	-0.56	8.31	0	594.5900011	451.9356456	41046	23.5019103	4.6572
2010	69	15.56	1.11	11.58	0.000808333	679.1629471	445.3511553	41210	23.29466853	5.1763
2010	70	15.56	2.22	11.89	0.002408333	541.3981871	256.1135277	41375	22.82730931	7.0167
2010	71	18.89	3.89	14.76	0.818983333	178.3883097	413.1944879	41540	22.487206	7.2823
2010	72	10	5	8.62	2.895616667	123.9284277	62.98845602	41705	22.57907794	6.3177
2010	73	8.33	5	7.42	0.880633333	103.5372274	54.11689344	41870	22.45610128	6.0542
2010	74	6.67	4.44	6.06	0.045566667	196.7819722	64.52996787	42036	22.2978331	5.8135
2010	75	6.67	4.44	6.06	1.67E-05	528.4148953	76.74920333	42202	22.22689526	6.8832
2010	76	15.56	-0.56	11.13	0	786.6147442	469.4445362	42368	22.20477957	7.0029
2010	77	17.78	0	12.89	0	884.5385146	484.5672735	42534	22.38504931	7.1553
2010	78	18.89	1.67	14.15	0	912.8883794	462.837063	42701	22.239841	7.9052
2010	79	20	6.11	16.18	0	1037.163672	460.265106	42867	22.17654399	8.7103
2010	80	21.11	6.67	17.14	0	1167.51575	427.7486563	43033	22.12846002	9.9589
2010	81	22.78	7.78	18.65	0.3143	561.2853258	411.1624439	43200	22.07529678	10.2415
2010	82	18.33	7.78	15.43	0.246025	335.6198265	122.6908478	43366	22.06776872	8.7507
2010	83	8.33	2.78	6.81	0.000108333	570.5693522	48.06248056	43533	22.03161722	8.1865
2010	84	15.56	2.78	12.04	0.200816667	517.5675446	497.080918	43699	21.95932703	8.3095
2010	85	18.33	-1.11	12.99	1.101366667	733.2761299	228.6958786	43865	22.54928775	7.7937
2010	86	5	-5.56	2.1	0	443.5347271	461.7601285	44032	23.14243733	6.3286
2010	87	8.89	-5.56	4.92	2.144625	172.9833566	465.0649976	44198	23.55635022	5.4362
2010	88	7.22	2.78	6	0.182625	186.4774684	148.7396134	44363	23.55354175	7.1282
2010	89	14.44	1.67	10.93	0.001841667	690.6611826	222.8917632	44529	23.45032287	6.8046
2010	90	10	1.67	7.71	0.000325	707.0691914	263.7826159	44695	23.38381254	8.1025
2010	91	20	5	15.88	0	1108.768058	506.0515697	44860	23.37711575	9.8338
2010	92	26.67	6.67	21.17	0	1343.450028	502.8346597	45025	23.26793688	11.56
2010	93	28.33	10	23.29	0	1371.97667	457.8408199	45190	23.75985026	12.4431
2010	94	25.56	12.22	21.89	0	1784.308152	432.3200364	45354	23.63785555	12.3859
2010	95	21.11	7.22	17.29	0.001283333	1113.620212	461.8967498	45518	23.38136478	12.1568
2010	96	26.67	8.33	21.63	0.1036	1268.346143	403.321944	45681	23.30600899	13.8265
2010	97	30	15.56	26.03	0	2277.840818	442.9441976	45845	23.19562588	14.0191
2010	98	29.44	12.22	24.71	0.188058333	1355.85076	376.8454231	46007	23.15937483	13.659
2010	99	28.89	4.44	22.17	0.03315	1122.008326	370.2253782	46169	22.70907647	10.5581
2010	100	7.22	3.89	6.31	0.008375	562.5312808	178.2767069	46331	22.35889842	10.4056
2010	101	16.67	5.56	13.61	0	923.1641868	545.0388654	46492	22.51623298	10.9814
2010	102	21.11	2.78	16.07	0	1318.838169	435.0994212	46653	23.70849743	11.3363
2010	103	18.89	4.44	14.92	0.001133333	845.7859205	515.1435955	46813	23.43556558	10.0474
2010	104	13.33	0	9.67	0	506.9135009	220.4580995	46972	23.19244372	10.126
2010	105	18.33	2.78	14.06	0	837.0168582	524.0639794	47131	22.93835897	11.1727
2010	106	25.56	7.78	20.67	0.412966667	874.0810633	459.777806	47289	22.69362501	12.2926
2010	107	25.56	6.11	20.21	0.19925	825.0047669	316.6303101	47446	22.56413508	10.049
2010	108	7.22	1.67	5.69	0.023616667	312.1296568	169.8893798	47602	22.72336764	8.7607
2010	109	9.44	1.67	7.31	0	517.9129054	199.5331044	47758	22.78991477	9.9825
2010	110	17.22	2.22	13.1	0	745.8473127	556.3498962	47912	22.51472506	10.654
2010	111	18.33	5	14.67	0.06255	608.2405161	481.528938	48066	22.05321661	10.7469
2010	112	20	4.44	15.72	0.056466667	751.3825465	395.2102715	48219	21.83843654	10.8678
2010	113	20	3.33	15.42	0	1116.214058	384.5707901	48370	23.06520181	11.2702
2010	114	19.44	3.89	15.17	0.070741667	757.695633	563.8635724	48521	22.9735395	10.2374
2010	115	16.67	6.11	13.76	1.24475	125.4044897	259.6226956	48671	22.8100442	9.9398
2010	116	11.67	7.78	10.6	1.029241667	100.9510084	107.3606927	48819	22.84548067	10.0933
2010	117	12.22	5.56	10.39	0.198733333	599.0647484	107.8124871	48966	22.66077397	10.0358
2010	118	11.11	1.67	8.51	0	629.9726654	455.2490342	49112	22.29813364	9.2705
2010	119	12.78	2.78	10.03	0	801.9290074	399.4500538	49257	22.06292231	10.2975
2010	120	19.44	6.67	15.93	0	905.2578058	547.0387195	49401	21.79374906	11.9353
2010	121	27.78	10	22.89	0	1358.744456	521.7890037	49543	21.4355202	13.5851
2010	122	30.56	15.56	26.43	0.23245	594.7040993	451.7932246	49683	21.15846369	14.1966
2010	123	23.89	17.78	22.21	1.59415	641.6816102	146.7228204	49823	21.36954902	15.0072
2010	124	25	12.78	21.64	0.37015	871.2859522	270.9380518	49960	21.02298838	13.9182
2010	125	22.22	8.89	18.56	0	858.2302341	443.7574497	50096	20.57709995	13.6522
2010	126	26.67	11.11	22.39	0.27015	1221.65997	570.7940836	50231	20.07356715	13.9708
2010	127	21.11	6.11	16.99	0	743.1969638	561.6209897	50363	19.85296842	12.8574
2010	128	20.56	8.33	17.19	0.721991667	641.877035	448.2928029	50495	19.74306776	12.7503
2010	129	16.11	2.78	12.44	0.037625	632.339722	345.2549982	50624	19.4194153	10.2552
2010	130	8.33	2.22	6.65	0	538.1930523	222.6988503	50751	20.58820346	9.9422
2010	131	15	1.67	11.33	1.692641667	284.1894484	604.4633149	50877	21.52422208	8.7392
2010	132	9.44	3.33	7.76	1.605108333	95.03821326	85.06468695	51000	21.45524922	9.366
2010	133	16.11	6.67	13.51	0.000833333	325.1761622	124.8047088	51122	21.08927974	10.3209
2010	134	14.44	7.78	12.61	0.162083333	322.4562471	205.0064739	51241	20.95590182	12.222
2010	135	27.22	11.11	22.79	0.132266667	1337.088583	334.1764299	51358	20.80370568	13.0431
2010	136	21.11	10.56	18.21	0.002566667	900.2163436	520.5132664	51473	20.49589932	12.8196
2010	137	19.44	8.89	16.54	0.335833333	439.1544302	549.3395966	51586	20.26571539	11.9806
2010	138	15.56	8.33	13.57	0.513241667	179.6434306	139.6399277	51697	20.2480755	11.1128
2010	139	11.67	8.33	10.75	0.000191667	250.5843739	92.89235016	51805	19.94894831	11.4335
2010	140	17.78	10	15.64	0	659.6935837	255.0064353	51910	19.56612934	13.125
2010	141	27.22	13.33	23.4	0	1003.374627	553.7747755	52014	19.15532483	13.9917
2010	142	27.78	15.56	24.42	0.303733333	781.8861175	413.3679243	52114	18.74160907	14.269
2010	143	22.22	15	20.24	1.86885	266.716222	302.1756907	52212	19.02927078	14.6927
2010	144	22.22	13.89	19.93	0.00325	399.917488	257.4301918	52308	18.72855822	14.9347
2010	145	23.33	15	21.04	0.00005	644.1077855	289.0385626	52400	18.35121907	15.9715
2010	146	26.67	16.11	23.76	0	895.8815694	442.8245048	52490	17.92491473	16.5058
2010	147	30	17.78	26.64	3.33E-05	1313.359499	552.1242222	52577	17.48002413	17.4317
2010	148	30.56	18.89	27.35	0.036416667	664.1662989	483.238915	52662	17.99489253	16.9615
2010	149	26.11	17.78	23.82	0.000433333	684.3608582	291.9525277	52743	17.71672147	16.9003
2010	150	26.11	13.33	22.6	0	956.8020012	357.3990381	52821	17.22635894	16.8065
2010	151	30	16.11	26.18	0.123666667	789.0704057	573.8025882	52896	16.65229577	17.1182
2010	152	30.56	17.78	27.04	0.306483333	503.5565497	401.6937855	52969	16.19984012	17.1472
2010	153	26.11	14.44	22.9	0	795.9966503	258.7485972	53038	15.80794947	17.055
2010	154	28.33	16.11	24.97	0.000383333	918.3023758	533.2181113	53103	15.44914637	17.5572
2010	155	27.78	18.89	25.33	0.001325	670.8221589	379.9798806	53166	15.13188429	17.5774
2010	156	28.33	18.89	25.74	0.226383333	534.0558894	357.5638508	53225	14.88251615	17.8605
2010	157	27.78	18.89	25.33	0.106141667	791.4485343	296.8741094	53281	14.65906666	17.6112
2010	158	25.56	12.78	22.04	0.0003	1096.404058	346.7124756	53334	14.39134237	16.038
2010	159	21.11	10	18.06	0	920.4562131	413.6223867	53383	14.12201374	15.1617
2010	160	22.22	11.67	19.32	3.927258333	255.7260075	591.149961	53429	15.45968645	14.1414
2010	161	17.22	12.22	15.85	0.003291667	513.1863292	72.95840442	53471	18.94373945	15.6406
2010	162	25.56	12.78	22.04	0	685.5874432	491.5957764	53510	18.0022728	15.801
2010	163	25.56	13.89	22.35	0.019616667	570.430018	472.4736643	53546	17.64280474	17.2697
2010	164	31.11	19.44	27.9	0.528716667	730.595471	477.3496769	53577	17.66824574	18.3716
2010	165	28.33	16.67	25.12	0.008216667	625.1153143	300.5305503	53606	18.35161887	17.8012
2010	166	25	18.33	23.17	0.003133333	529.8318543	220.56974	53630	17.62660257	17.3128
2010	167	23.33	17.78	21.81	0.119383333	485.7824635	258.9768673	53651	17.35694698	17.6278
2010	168	28.33	17.22	25.28	0	1173.624179	433.2786049	53669	17.21483996	17.4982
2010	169	23.33	11.67	20.12	0	676.6384707	441.7947339	53682	16.69329223	16.7346
2010	170	27.22	13.89	23.56	0	778.92801	584.6085602	53693	16.1738617	17.5945
2010	171	31.11	17.78	27.44	0.041833333	1104.615981	507.7140556	53699	15.86627698	18.4597
2010	172	28.89	16.11	25.38	0	1056.244733	422.426386	53702	15.66120374	18.2918
2010	173	29.44	18.89	26.54	0.345633333	654.9866769	531.8649394	53701	15.68070228	18.2788
2010	174	27.78	20.56	25.79	0.011108333	875.979023	294.2680996	53696	15.31558079	19.3217
2010	175	31.67	20.56	28.61	0.035641667	1198.900125	502.6540941	53688	14.85407186	19.284
2010	176	28.33	16.67	25.12	0	1026.932597	384.5786413	53676	14.44124695	18.7005
2010	177	27.22	17.22	24.47	0	950.2680028	500.8939224	53661	14.05601949	18.5194
2010	178	30	19.44	27.1	1.03355	899.8804639	452.2930239	53641	13.72179995	19.5278
2010	179	31.67	21.11	28.76	0.1209	968.1793801	459.5384121	53619	13.49670815	19.8216
2010	180	26.67	19.44	24.68	0.017883333	1134.858296	230.7542668	53592	13.31179529	19.1265
2010	181	25	8.89	20.57	0	1057.861714	494.4765845	53562	13.06139497	16.8419
2010	182	22.22	10	18.86	0	983.406447	543.9774216	53529	12.81407289	16.0243
2010	183	22.22	10	18.86	0	883.5957742	477.9012718	53491	12.62483111	16.0015
2010	184	25	12.22	21.49	0	1060.72511	580.686352	53451	12.47856182	16.6681
2010	185	30	13.33	25.42	0	1367.643937	579.5667785	53407	12.36774357	17.6613
2010	186	32.78	18.33	28.81	0	1530.310727	571.458612	53359	12.2714913	19.0081
2010	187	34.44	20.56	30.62	0	1773.996979	479.4311893	53308	12.26899786	19.7662
2010	188	33.89	21.11	30.38	0	1710.002764	497.2774386	53254	12.14616033	20.3556
2010	189	33.89	21.11	30.38	0	1870.65705	500.8529477	53196	12.07315356	20.3258
2010	190	34.44	22.22	31.08	2.081583333	1197.390857	482.5280525	53135	11.96510177	20.4674
2010	191	32.78	18.33	28.81	1.728766667	1312.467067	395.9586096	53071	11.934537	20.0465
2010	192	27.78	14.44	24.11	0	1133.416809	529.9081871	53004	11.86261061	19.0256
2010	193	30	17.22	26.49	0.73635	682.3568476	574.0629311	52933	11.87342829	18.609
2010	194	27.78	19.44	25.49	0.059183333	456.26382	347.1360016	52860	12.53735802	19.2035
2010	195	25.56	19.44	23.88	1.139066667	524.0691574	208.4963139	52783	13.01361082	19.8845
2010	196	28.33	18.33	25.58	0	848.8172994	315.1862327	52703	13.03696722	20.2073
2010	197	30.56	20	27.65	0.48655	485.2050045	505.5383603	52620	13.14258821	20.1076
2010	198	29.44	18.89	26.54	0.000166667	831.2836514	326.8061374	52535	13.34750245	20.3837
2010	199	30	18.89	26.94	0.0028	1335.872475	498.2107771	52446	13.27445577	20.9314
2010	200	31.67	22.22	29.07	0.00055	1172.862153	519.6725176	52355	13.04225785	20.6538
2010	201	30.56	18.33	27.19	0.4471	546.8714812	463.5241707	52261	13.0838097	20.0519
2010	202	29.44	18.89	26.54	0.416091667	750.04759	328.5911701	52164	12.96132457	20.6109
2010	203	31.11	18.89	27.75	0.344708333	979.5500502	419.1912946	52065	12.89125179	20.5482
2010	204	29.44	20	26.85	0.001166667	1130.484838	520.6799174	51963	16.52457752	21.229
2010	205	33.89	22.22	30.68	0.002166667	1667.306151	442.8348594	51858	16.41951924	22.141
2010	206	32.78	22.22	29.88	0.206216667	1058.341802	481.0302668	51751	16.2321553	21.3097
2010	207	27.22	17.22	24.47	0	1104.311093	282.2865474	51642	15.92954878	19.9797
2010	208	27.78	16.11	24.57	0	989.1303315	567.2802788	51530	15.50772485	19.5328
2010	209	29.44	18.33	26.39	0	1062.703218	533.1413889	51417	15.09486816	20.0782
2010	210	30.56	20	27.65	0.312433333	1242.692256	501.9899839	51300	14.76409334	20.7657
2010	211	28.89	14.44	24.92	0	1191.594979	460.9948938	51182	14.47128286	19.2187
2010	212	25.56	13.33	22.19	0	1046.683227	494.7624649	51062	14.16875294	18.6617
2010	213	26.67	15.56	23.61	0.0018	1014.72537	470.127959	50939	13.84843131	19.2773
2010	214	27.78	18.33	25.18	0	799.9971262	407.574343	50815	13.53773836	18.946
2010	215	25.56	19.44	23.88	0.12175	482.7329491	320.505048	50688	13.22613505	19.4694
2010	216	28.33	21.67	26.5	0.1883	643.2302471	251.1347045	50560	12.96137255	20.689
2010	217	32.22	20.56	29.01	0.015533333	1043.26288	361.4060932	50430	12.66432749	20.7004
2010	218	28.33	18.33	25.58	0.19875	980.2004728	369.8730619	50298	12.37889137	19.9869
2010	219	25.56	15	22.65	0	950.096899	393.763137	50164	12.05264343	18.8217
2010	220	26.67	13.89	23.15	0	1108.238357	462.9535229	50029	11.1063118	18.5913
2010	221	29.44	15	25.47	0	1455.063619	508.0575799	49892	10.96220608	19.2558
2010	222	32.22	17.22	28.1	0	1413.836914	510.3338352	49754	10.78548874	20.2338
2010	223	32.22	20	28.86	0	1543.52506	388.8282333	49614	10.66545242	20.7203
2010	224	31.67	20	28.46	1.727325	407.2173777	506.0540388	49472	10.54568703	20.2008
2010	225	23.33	16.67	21.5	0.066308333	456.9723593	142.3940018	49330	10.70245531	19.1713
2010	226	21.67	17.22	20.44	0	729.8387913	171.1266529	49186	10.72871572	18.8392
2010	227	24.44	19.44	23.07	0.923683333	306.2990266	208.9856974	49040	10.73976724	19.2092
2010	228	27.22	19.44	25.08	0.000133333	894.7940435	220.6972745	48894	10.85874374	20.7451
2010	229	30	16.67	26.33	0	1297.342299	448.3592342	48746	10.85167825	19.5086
2010	230	27.78	17.78	25.03	0	866.6201794	505.7492684	48597	11.60138661	18.8717
2010	231	25.56	14.44	22.5	0	779.0633917	269.789573	48446	11.88157681	18.793
2010	232	30	16.11	26.18	0	1085.611031	467.3253439	48295	11.50461238	19.2761
2010	233	29.44	16.67	25.93	0.0001	1022.523487	460.0520346	48143	11.36066855	19.3224
2010	234	28.33	17.22	25.28	5.16885	519.1962818	305.6888962	47990	12.75421505	20.0331
2010	235	26.11	17.22	23.67	0.204908333	405.6654593	252.5466763	47836	12.83918513	18.8358
2010	236	20.56	15	19.03	0.027841667	371.05711	154.4765724	47681	12.68825252	18.1719
2010	237	20.56	15	19.03	0.044958333	441.8330614	171.5406367	47525	12.54422896	18.3874
2010	238	25	16.67	22.71	0.000158333	877.2703059	277.5863293	47368	12.43283921	18.3295
2010	239	24.44	10.56	20.62	0	748.6583543	452.7073281	47210	11.99308995	17.2271
2010	240	25	10.56	21.03	0	779.5339742	545.0108773	47052	11.76277013	17.0201
2010	241	27.22	12.22	23.1	0	791.4642562	532.5858847	46893	12.51151426	17.7762
2010	242	30.56	14.44	26.13	0	1024.022671	515.6393823	46734	12.92905543	18.6314
2010	243	30.56	16.67	26.74	0	1047.837738	507.8233079	46573	15.1567185	19.0667
2010	244	32.22	18.33	28.4	0	1262.067289	484.4877013	46413	16.74235414	19.4269
2010	245	32.22	18.33	28.4	0	1320.47912	489.3984873	46251	16.48021567	19.6894
2010	246	32.78	18.33	28.81	0.00065	1314.304528	499.7139798	46089	16.27508848	19.4122
2010	247	31.67	15	27.08	0	1431.1609	397.3791114	45927	15.95479698	17.6589
2010	248	19.44	10.56	17	0	721.8798257	262.8457095	45764	15.88825946	16.0627
2010	249	20	7.78	16.64	0	679.7199161	411.8463802	45600	15.87923244	15.9016
2010	250	25.56	8.89	20.97	0	1107.261922	453.1883381	45437	15.90755549	17.4676
2010	251	31.67	15	27.08	0	1890.012094	489.8987952	45272	15.82041667	18.2048
2010	252	23.89	13.33	20.99	0.000183333	1038.530398	498.7605484	45108	15.6649777	16.4787
2010	253	19.44	12.78	17.61	6.67E-05	777.2339625	228.4968189	44943	15.54289215	16.1899
2010	254	20	8.33	16.79	0	748.6275351	287.6414149	44778	15.4799978	15.7725
2010	255	22.78	10	19.26	0.660916667	216.9822357	442.1500584	44613	15.5555849	16.1405
2010	256	20.56	9.44	17.5	0.0016	619.4254481	138.2047184	44447	15.52660896	16.2609
2010	257	25	11.11	21.18	0	1061.000073	446.2729756	44281	15.44442493	16.0061
2010	258	22.78	11.11	19.57	0	990.0210669	494.4632599	44115	15.45741651	15.9399
2010	259	23.89	10.56	20.22	2.125225	372.4080067	496.9890357	43949	15.72401278	14.7664
2010	260	17.78	11.67	16.1	0.484125	375.0209321	83.16623586	43783	16.82543736	15.8835
2010	261	17.78	8.89	15.33	0.005	375.7720653	235.761124	43617	16.49464916	15.4301
2010	262	22.78	8.89	18.96	0.0195	480.5608047	446.6498629	43450	16.29275839	16.1724
2010	263	26.11	11.67	22.14	3.33E-05	1081.792827	327.986593	43284	15.94155304	15.9854
2010	264	20.56	7.22	16.89	0	643.9765751	485.8513588	43117	15.71900825	14.9817
2010	265	25	7.22	20.11	0.01325	635.0261859	473.8088342	42951	15.54987036	16.6072
2010	266	30.56	15	26.28	0.00045	782.4224953	368.811278	42784	15.41224609	17.7442
2010	267	28.89	16.11	25.38	0	1217.707535	344.2699519	42618	15.33214616	18.4981
2010	268	31.11	17.22	27.29	0	1751.510632	398.4491146	42452	15.21860128	18.486
2010	269	25.56	10	21.28	0.000125	831.7510312	463.537035	42286	15.14451741	16.1721
2010	270	18.33	10	16.04	1.195225	164.7892971	263.5440307	42120	16.59738284	16.1908
2010	271	20	13.33	18.17	1.661683333	426.1130836	97.19021785	41954	17.25754229	17.2701
2010	272	22.78	12.22	19.88	0	487.310112	292.697899	41788	17.29096665	15.7498
2010	273	18.33	12.22	16.65	6.583841667	126.6738748	243.5562827	41623	17.41345266	15.8431
2010	274	17.78	12.22	16.25	0.844658333	547.663525	17.13587415	41458	17.64466776	15.2564
2010	275	18.33	5.56	14.82	0	426.5965178	265.7222428	41293	17.51765147	13.7724
2010	276	16.67	5.56	13.61	0	575.8699083	449.0565997	41129	17.32436894	13.5224
2010	277	16.67	6.11	13.76	0.53855	278.6348763	330.4320873	40964	17.28957392	12.3979
2010	278	9.44	6.67	8.68	0.212733333	133.5831472	99.10150173	40801	18.22406484	11.7867
2010	279	11.11	7.78	10.19	0.127425	190.0250428	69.93379381	40637	18.49707018	11.9233
2010	280	12.22	8.33	11.15	0.039575	463.5628944	83.46550901	40474	18.60656616	12.9868
2010	281	18.89	7.22	15.68	0	655.8766755	331.3621521	40312	18.57886518	13.2369
2010	282	22.22	7.78	18.25	0	779.6958025	428.2080577	40150	18.4877733	13.7489
2010	283	22.78	6.67	18.35	0	692.8307783	408.4916371	39989	18.3241896	13.9065
2010	284	25	6.67	19.96	0.066072917	741.3670975	360.3649838	39828	18.28195585	15.0521
2010	285	24.44	12.78	21.24	0.1991125	521.5284483	270.4355667	39667	18.41367206	15.14013072
2010	286	20.56	3.33	15.82	0.09274375	566.6405233	336.8094668	39508	18.36576001	13.62415517
2010	287	15.56	3.89	12.35	0.14305	231.1095259	430.254098	39349	18.295984	12.41782153
2010	288	12.22	6.11	10.54	0.1139375	468.0303829	76.08579169	39191	18.34921761	12.36702853
2010	289	13.89	6.11	11.75	0.114870833	761.6832293	299.0997243	39033	18.41744725	12.34065525
2010	290	16.11	6.67	13.51	0.122252083	685.4528063	410.6881045	38876	18.84676983	12.16678692
2010	291	19.44	5	15.47	0.162904167	555.0569026	382.0488795	38720	19.16396122	11.86788968
2010	292	11.67	5.56	9.99	0.1466625	282.4429187	120.9141712	38565	19.18587469	11.66667127
2010	293	13.33	2.78	10.43	0.1443875	414.7898982	264.5504548	38411	19.20687382	10.82724344
2010	294	15.56	3.33	12.19	0.1517625	699.3025205	337.0945691	38258	19.23035844	10.82337435
2010	295	13.33	3.33	10.58	0.159147917	490.3280585	274.0697246	38106	19.63063355	10.31830125
2010	296	10.56	3.33	8.57	0.166525	557.1833776	192.281847	37955	20.20227314	10.41053199
2010	297	21.67	8.89	18.15	0.1739	1012.377238	291.9037002	37804	20.29306825	11.89030206
2010	298	22.78	10	19.26	0.189858333	789.3058313	284.5886314	37655	20.32738014	12.5493022
2010	299	20.56	10.56	17.81	0.18865625	358.6443465	155.1068354	37507	20.93902461	13.16804289
2010	300	20.56	11.11	17.96	0.5158375	632.6654051	203.2973558	37361	21.88356362	13.96789882
2010	301	21.11	12.22	18.67	0.212004167	1297.96509	322.3588301	37215	23.84846328	12.89208266
2010	302	17.78	6.11	14.57	0.217233333	689.7388036	347.1481613	37071	23.77878534	11.77118763
2010	303	9.44	1.11	7.15	0.2224625	444.2267866	150.9450592	36928	21.66900245	10.52773603
2010	304	14.44	1.67	10.93	0.22984375	808.029403	251.4569035	36787	21.93683033	10.69965079
2010	305	10.56	0	7.65	0.232933333	472.1719969	284.027115	36647	23.13847408	9.839100232
2010	306	8.89	-2.78	5.68	0.240304167	319.3909071	359.4175812	36509	22.91400534	8.793936676
2010	307	8.89	-3.33	5.53	0.247679167	312.2789986	355.656342	36372	22.74373671	8.421780307
2010	308	11.67	-1.67	8	0.604264583	83.69635213	343.3609411	36237	22.82592054	9.04301771
2010	309	7.22	4.44	6.46	0.2888375	175.9257212	52.92471285	36103	22.8410022	9.084042822
2010	310	7.78	0	5.64	0.269820833	172.1142941	97.46240164	35971	22.72272439	8.53308221
2010	311	6.67	-1.67	4.38	0.277195833	210.7492259	142.1886031	35841	22.62131145	7.87303637
2010	312	7.22	-1.67	4.78	0.284570833	361.6596132	179.3380594	35713	22.56119935	8.08175809
2010	313	12.78	1.67	9.72	0.291952083	368.5225518	324.3533127	35586	22.4846269	8.6289729
2010	314	13.33	2.78	10.43	0.2993375	419.5066571	299.6580688	35462	22.40245179	9.2427988
2010	315	15.56	-0.56	11.13	0.25615	492.2783269	318.8450635	35339	22.31755652	8.57585134
2010	316	14.44	-1.67	10.01	0	481.0964535	326.43334	35219	22.40595768	8.00312145
2010	317	15.56	-2.78	10.51	0	559.4893169	328.940533	35100	22.70749814	7.74295129
2010	318	16.11	-2.22	11.07	0	579.0470585	323.7285025	34984	22.62351081	7.556345811
2010	319	16.11	1.11	11.99	0	372.2928587	239.3385247	34870	22.49872231	8.530203816
2010	320	11.11	5.56	9.58	0.537322917	152.0840852	195.8880393	34759	22.45484933	8.75584193
2010	321	13.33	6.11	11.35	0.203147917	320.9556925	43.06116616	34649	22.30917822	9.069390996
2010	322	10	4.44	8.47	0	232.0091213	65.38371239	34542	22.25379481	8.454014323
2010	323	7.22	0.56	5.39	0.0064375	269.3813889	61.88767201	34438	21.98501396	7.0587
2010	324	8.33	1.67	6.5	0	277.0268488	224.9680852	34336	21.70367449	6.1665
2010	325	9.44	0	6.85	0	207.7341228	103.3870167	34237	22.60085864	5.3265
2010	326	10	0.56	7.4	0	298.3917824	248.4682913	34140	23.64977073	4.4798
2010	327	16.11	7.78	13.82	0	539.9005792	228.421192	34046	23.56152404	1.624
2010	328	16.67	1.11	12.39	0	692.4428835	88.00035312	33954	23.67601613	1.5477
2010	329	6.11	1.11	4.74	0.507597917	181.2210866	229.914744	33866	23.58523292	1.2199
2010	330	6.67	1.67	5.29	0.2343625	222.6173954	30.13803077	33780	23.64919192	0.8739
2010	331	5.56	-1.67	3.57	0.0618	302.8723865	225.3732452	33697	23.7362444	1.0548
2010	332	1.67	-1.11	0.9	0.027897917	235.2704458	71.87201974	33618	23.3301273	1.3007
2010	333	5.56	-4.44	2.81	0	198.9130146	274.7774369	33541	23.24562208	1.2566
2010	334	7.22	-4.44	4.01	0.559314583	144.0269041	261.5324963	33467	23.30334315	0.9039
2010	335	15.56	6.11	12.96	0.634014583	217.6643005	33.74791658	33397	23.21020602	0.8135
2010	336	8.89	-3.33	5.53	0	225.6602918	56.98089658	33329	23.23087884	0.7302
2010	337	0	-3.89	-1.07	0	141.7869422	112.6552181	33265	23.31314786	0.8062
2010	338	0.56	-3.33	-0.51	0	141.1717228	101.6101179	33204	21.11735729	0.8844
2010	339	1.11	-5	-0.57	0	208.3396032	130.2905481	33146	21.02556428	1.1011
2010	340	0	-4.44	-1.22	0	185.6257966	174.1276179	33092	21.02540186	0.8207
2010	341	-1.67	-5.56	-2.74	0	148.6670345	108.4282173	33041	20.93898579	0.7564
2010	342	-2.22	-6.67	-3.44	0	170.1421997	105.1390701	32993	20.80851979	0.8423
2010	343	-2.22	-7.78	-3.75	0	169.1102716	135.5753182	32949	20.8752363	1.0173
2010	344	-1.11	-7.78	-2.94	0.8478	92.37163869	267.2914253	32909	21.33692544	1.1066
2010	345	-1.11	-6.11	-2.49	0	125.3133763	65.3416983	32872	21.34958569	0.9999
2010	346	3.33	-6.67	0.58	6.78475	53.99989583	205.4928654	32838	21.45004076	0.8258
2010	347	6.67	-5.56	3.31	0.14025	286.7707843	41.38416448	32808	21.25882928	0.6753
2010	348	-2.78	-10.56	-4.92	0.25175	157.1837901	177.9237168	32782	21.263215	0.555
2010	349	-6.11	-10	-7.18	0.0091	133.9123063	126.1406605	32759	21.24228966	0.5797
2010	350	-4.44	-10	-5.97	0.00675	116.3516088	136.7322552	32740	21.16076727	0.7728
2010	351	-3.89	-10	-5.57	0	127.3264968	127.9263665	32724	21.03714666	0.8115
2010	352	-1.11	-6.67	-2.64	0	177.9268931	140.7495613	32712	21.04765131	1.1004
2010	353	-0.56	-10.56	-3.31	0	125.3856509	166.8297909	32704	21.22827465	1.1447
2010	354	-1.67	-11.11	-4.26	0.0354	122.916714	191.5195249	32699	21.09509955	1.2009
2010	355	-1.67	-4.44	-2.43	0.0081	206.3356866	65.8404774	32698	21.05901365	1.1409
2010	356	1.67	-5	-0.17	0	258.9447398	251.0295995	32701	20.88832346	1.4228
2010	357	2.78	-3.89	0.94	0.0417	253.2793513	148.6241271	32707	20.70821046	1.2586
2010	358	1.11	-5	-0.57	0.0011	228.4464871	140.4444092	32717	21.33995982	0.9008
2010	359	0.56	-5	-0.97	0.0005	180.6076639	227.5608826	32731	21.32792986	0.7431
2010	360	-1.11	-6.11	-2.49	0.0301	171.8522103	91.28727779	32749	21.35030112	0.828
2010	361	-2.78	-8.89	-4.46	0	194.8111694	90.32785444	32770	21.31730293	0.8388
2010	362	-2.22	-8.89	-4.06	0.0014	193.5319113	253.2168251	32794	21.02073072	1.2885
2010	363	1.11	-6.11	-0.88	0	209.7445961	205.4664221	32822	20.97901192	0.9559
2010	364	4.44	-7.22	1.24	0.0145	149.7636122	228.1116218	32854	20.82162914	0.8165
2010	365	3.33	-7.22	0.43	0	147.0148056	119.8578936	32889	20.67101579	0.728595105
