"Shalehills,"	2012	:	input	for	MTCLIM	v4.3				
MTCLIM	v4.3	OUTPUT	FILE	:	Mon	Jan	16	16:32:50		
	yday	Tmax	Tmin	Tday	prcp	VPD	srad	daylen	SoilW	SoilT
		(degC)	(degC)	(degC)	(cm)	(Pa)	(Wm-2)	(s)	(%)	(deg C)
2008	1	4.44	-2.78	2.46	0.945	162.1754386	103.1207753	32928	18.61698966	1.98562999
2008	2	3.89	-5.56	1.29	0.02	187.1368421	232.8207083	32971	18.63248577	1.607185458
2008	3	-3.33	-11.11	-5.47	0	101.5438596	147.7563399	33017	18.56510638	1.3010022
2008	4	-4.44	-10.56	-6.13	0	79.34736842	202.4340753	33066	18.0541939	0.892287663
2008	5	3.33	-9.44	-0.18	0	213.3263158	177.5587866	33119	18.39258303	0.270235081
2008	6	5.56	-0.56	3.88	0.09	153.9578947	208.5530281	33175	18.13110052	0.271250161
2008	7	7.78	5	7.01	0.035	91.50175439	193.554512	33234	20.878733	1.212635815
2008	8	18.89	6.11	15.38	0.025	564.2736842	207.3596443	33296	20.89939448	3.084797986
2008	9	19.44	8.33	16.39	0.06	537.6280702	145.0679761	33362	19.20102082	5.012588925
2008	10	11.67	-0.56	8.31	0	356.7017544	196.8684316	33431	18.46547214	4.952372752
2008	11	7.78	-0.56	5.49	2.36	221.4175439	97.84255042	33503	18.8888029	4.276718303
2008	12	10.56	2.78	8.42	0	250.8	212.3820175	33579	18.77413169	3.770016462
2008	13	6.11	-2.22	3.82	0	199.2421053	130.2973113	33657	18.48716669	3.74169895
2008	14	3.89	-2.22	2.21	0.12	138.4210526	107.437446	33738	18.10148573	3.131347552
2008	15	2.78	-2.78	1.25	0	119.7754386	156.8194704	33822	17.88821334	2.79769908
2008	16	-1.11	-2.78	-1.57	0	32.70175439	169.4832193	33909	17.42183782	2.654006957
2008	17	0	-3.33	-0.92	0.57	65.66315789	54.64122451	33999	16.69168408	2.149081294
2008	18	2.22	-2.22	1	0.33	96.6877193	259.410067	34092	16.59698563	2.08925867
2008	19	2.78	-6.67	0.18	0	173.9508772	101.4686529	34187	16.90748176	1.846934865
2008	20	-1.11	-12.22	-4.17	0	146.877193	197.1440278	34285	17.03983002	1.792562466
2008	21	-10	-13.89	-11.07	0	37.60701754	295.9013676	34386	16.88682028	1.344159896
2008	22	-5	-13.89	-7.44	0	98.44210526	75.6886768	34489	16.82012961	0.884443809
2008	23	2.78	-6.11	0.33	0	167.4526316	303.5188354	34595	19.62136716	0.295707785
2008	24	-2.78	-7.78	-4.15	0	76.32280702	172.5912892	34703	21.55849569	0.21810746
2008	25	-2.22	-10	-4.36	0	109.6210526	310.6993709	34814	17.9180577	0.171631818
2008	26	-3.89	-10	-5.57	0.04	82.45614035	139.0999168	34926	16.80383	0.195194815
2008	27	-2.78	-8.33	-4.31	0	82.82807018	165.3614133	35042	15.770756	0.486059027
2008	28	-0.56	-5	-1.78	0	80.60350877	206.4407029	35159	14.29311582	0.073528472
2008	29	2.22	-2.22	1	0.4	96.6877193	57.86711184	35278	15.70796806	0.1692792
2008	30	5.56	-1.11	3.72	1.5	164.3087719	320.9103309	35400	16.59732999	0.202406437
2008	31	0.56	-8.89	-2.04	0	149.9578947	299.6179348	35523	15.98942333	0.265287212
2008	32	1.11	-7.78	-1.33	2.715	149.9017544	44.79662958	35649	16.51250313	0.369245269
2008	33	2.78	-2.22	1.4	0.005	110.245614	70.96715539	35776	20.03253061	0.386209188
2008	34	1.11	-5.56	-0.72	0	123.1789474	252.0953203	35905	20.89744312	0.652532606
2008	35	6.11	-5	3.06	0.02	238.077193	37.15488668	36036	20.41821157	0.609426353
2008	36	5	0.56	3.78	1.02	115.4596491	78.01790502	36169	18.55316864	0.578380984
2008	37	13.33	3.33	10.58	0.4	351.2280702	76.04084906	36303	17.17734364	0.110542851
2008	38	16.67	1.67	12.54	1.01	536.0421053	44.24482559	36440	20.09807341	0.488986987
2008	39	3.33	-1.11	2.11	0.06	103.8526316	119.5523488	36577	22.45061248	1.73463888
2008	40	2.22	-2.22	1	0.78	96.6877193	133.9027617	36716	21.80597431	1.185453629
2008	41	4.44	-1.67	2.76	0.21	143.4385965	175.6752367	36857	21.90365719	0.704218438
2008	42	-1.11	-16.67	-5.39	0	170.5473684	350.5501089	36999	22.21851519	0.45277809
2008	43	-8.89	-16.67	-11.03	1.91	68.41403509	65.52718621	37143	22.31034399	0.308974305
2008	44	-3.33	-11.67	-5.63	0.57	106.2385965	85.68008681	37287	21.06916297	0.085021001
2008	45	0.56	-7.78	-1.74	0	138.5403509	375.5329431	37433	20.58832442	-0.142639665
2008	46	2.22	-7.78	-0.53	0	173.5438596	46.57973597	37581	20.38033219	-0.131321892
2008	47	2.78	-11.11	-1.04	0	213.5157895	350.3656893	37729	19.9719236	-0.060985867
2008	48	2.22	-10.56	-1.29	0.23	197.9649123	110.5781685	37879	19.53344108	0.361980076
2008	49	8.89	-0.56	6.29	0.44	257.7403509	144.9049047	38029	19.66555977	0.394781893
2008	50	8.33	-4.44	4.82	0	295.9298246	261.2236379	38181	21.67523305	0.657314366
2008	51	-1.11	-10	-3.56	0	128.9964912	270.7561855	38334	19.93496251	0.610389516
2008	52	-3.89	-12.78	-6.33	0	106.4491228	397.073593	38487	19.36447609	0.357798417
2008	53	-2.22	-12.78	-5.13	1.05	132.2526316	79.42289301	38642	20.09531855	0.164884307
2008	54	-2.78	-5.56	-3.54	0.08	46.58245614	200.7519583	38798	19.38421928	0.305468332
2008	55	1.67	-8.89	-1.24	0	172.5333333	413.2258724	38954	18.55064335	0.376742508
2008	56	5	-8.89	1.18	0	247.7824561	324.5272071	39111	18.88076788	0.253918849
2008	57	2.78	-5	0.64	0.79	153.2701754	47.53574498	39269	19.56041579	0.3942552
2008	58	1.67	-3.33	0.29	0.01	102.5754386	219.2146977	39428	21.28300929	0.219734508
2008	59	-2.22	-11.67	-4.82	0	124.0421053	358.7296795	39587	21.27038283	0.061989478
2008	60	1.67	-12.22	-2.15	1.565	197.9789474	236.0393017	39747	20.46148589	-0.133515002
2008	61	1.67	-5.56	-0.32	0	135.3192982	260.9733872	39907	19.84347807	-0.113632266
2008	62	4.44	-5.56	1.69	0	200.9473684	342.8586419	40068	18.81786516	-0.025818963
2008	63	15.56	1.67	11.74	2.165	483.3684211	405.5281082	40230	18.50484373	0.29539159
2008	64	7.78	1.67	6.1	3.805	176.9894737	20.13010008	40392	18.72546243	0.217023958
2008	65	4.44	-2.78	2.46	0	162.1754386	91.12006065	40555	19.13123094	0.455785487
2008	66	7.78	-2.78	4.88	1.01	257.2491228	412.5798583	40718	19.10299358	1.20440219
2008	67	7.22	-1.11	4.93	2.03	213.8035088	109.773051	40882	20.77772132	1.211442515
2008	68	3.33	-7.22	0.43	0	192.8140351	38.16644526	41046	21.87381283	1.713988617
2008	69	0	-6.67	-1.83	0	114.4140351	418.9705409	41210	20.68394116	1.472068237
2008	70	6.11	-3.89	3.36	0	223.8807018	301.4547967	41375	20.39571351	1.460636767
2008	71	6.11	1.11	4.74	0.01	136.2807018	261.5710932	41540	19.81397806	1.68601767
2008	72	4.44	-3.33	2.31	0	170.8210526	149.0074775	41705	19.4266901	1.796911417
2008	73	13.33	-3.33	8.75	0.015	456.6035088	403.9206838	41870	19.15625428	2.226991283
2008	74	15	3.89	11.94	0.335	414.0701754	317.7088321	42036	18.98269785	2.814563958
2008	75	10	1.11	7.56	0	265.5368421	243.2038127	42202	19.71549168	3.845345237
2008	76	5.56	-3.89	2.96	0	208.5403509	161.0423042	42368	21.21379333	4.12131104
2008	77	7.78	-3.89	4.57	0.1	272.2807018	455.2582869	42534	20.44621935	3.718096093
2008	78	5.56	2.22	4.64	1.52	93.68421053	52.6479322	42701	20.00486718	3.481184735
2008	79	12.78	1.67	9.72	0.21	362.0140351	75.60865208	42867	19.44425236	4.023746465
2008	80	3.89	-2.78	2.06	0	147.677193	331.7353312	43033	19.04238657	4.278271897
2008	81	6.11	-2.78	3.67	1.19	207.922807	462.6838181	43200	18.86848578	4.021189435
2008	82	5.56	-6.11	2.35	0	235.8736842	281.1786175	43366	18.65199939	3.507170728
2008	83	6.11	-5.56	2.9	0	244.554386	504.324747	43533	18.30190209	3.147618268
2008	84	5.56	-4.44	2.81	0	216	370.9361929	43699	18.07485538	2.584041985
2008	85	9.44	-3.89	5.78	0	324.4350877	473.3838402	43865	19.67348	2.91063536
2008	86	12.22	1.67	9.32	0.125	339.4175439	319.523055	44032	19.44425236	4.120339087
2008	87	6.67	2.22	5.44	0.615	128.1684211	57.33573491	44198	19.04238657	4.161830667
2008	88	7.22	-2.78	4.47	0	240.3929825	69.31273779	44363	18.86848578	4.691102293
2008	89	7.22	-4.44	4.01	0	262.7508772	525.1452838	44529	18.65199939	4.07767142
2008	90	10	-4.44	6.03	0	348.8912281	493.1239148	44695	18.30190209	4.031716132
2008	91	13.33	4.44	10.89	0.155	325.3473684	222.9048051	44860	18.07485538	4.7298252
2008	92	21.11	1.11	15.61	0.005	779.5157895	171.3396096	45025	17.95169	6.243084637
2008	93	8.33	-2.78	5.28	0	274.5263158	462.2235564	45190	19.5325	6.069643875
2008	94	9.44	-2.22	6.24	0.9	302.6736842	314.8431952	45354	20.69184	5.313235883
2008	95	11.67	3.33	9.38	0.19	281.5789474	111.3361229	45518	20.93012	5.493004633
2008	96	12.22	4.44	10.08	0	277.5157895	275.1726024	45681	20.54092	6.196472683
2008	97	15	4.44	12.1	0	401.4596491	401.8474765	45845	20.24062	6.580615733
2008	98	8.33	5.56	7.57	0	94.65263158	125.2019054	46007	20.07514	6.5787051
2008	99	14.44	6.11	12.15	0	332.6807018	260.0968917	46169	20.03874	7.036100467
2008	100	16.11	6.11	13.36	0	414.5754386	254.827429	46331	19.98918	7.830930333
2008	101	20.56	6.67	16.74	0.74	649.7052632	476.8060224	46492	20.50746	8.774187267
2008	102	20	11.67	17.71	0.19	459.0105263	142.8412429	46653	21.28712	9.707549483
2008	103	18.33	3.89	14.36	0.225	581.7052632	454.8654359	46813	20.78676	10.40617728
2008	104	8.33	0.56	6.19	0.015	218.6315789	168.5806162	46972	20.54064	8.9754287
2008	105	10.56	-2.22	7.04	0	340.6947368	399.2359411	47131	20.29592	7.85522545
2008	106	15	0	10.88	0	484.5333333	559.5582613	47289	20.07556	7.511978233
2008	107	20	2.22	15.11	0	701.6982456	549.8492099	47446	19.91386	7.946122683
2008	108	26.11	7.22	20.92	0	1022.021053	552.2985611	47602	19.82342	8.8155773
2008	109	28.33	10.56	23.44	0	1130.484211	535.9365283	47758	19.60264	10.29534077
2008	110	27.22	12.22	23.1	3.12	984.1192982	415.2528809	47912	21.16952	11.3890745
2008	111	15.56	12.78	14.79	0.24	144.8140351	114.5538648	48066	21.4554	11.5413375
2008	112	21.11	11.67	18.51	0	532.8070175	275.2961564	48219	21.03106	11.70688788
2008	113	22.22	10	18.86	0	666.6666667	412.4645992	48370	20.71046	12.00612865
2008	114	23.89	10.56	20.22	0	768.9403509	419.9572102	48521	20.4691	12.0702458
2008	115	22.22	11.11	19.17	0	629.8245614	519.1230785	48671	20.1212	12.2995505
2008	116	25	11.11	21.18	2.11	836.3719298	386.4889059	48819	20.84794	12.23152833
2008	117	27.22	10.56	22.64	0.43	1034.203509	391.9625767	48966	21.6822	13.41836817
2008	118	19.44	7.22	16.08	2.13	568.5824561	410.7150392	49112	22.15316	13.50048467
2008	119	11.11	5	9.43	0	217.0666667	85.65224241	49257	21.31806	11.37513248
2008	120	13.89	2.78	10.83	0	387.2912281	439.8841022	49401	20.72068	10.86729995
2008	121	12.22	3.33	9.78	0	304.245614	404.7263105	49543	20.3459	9.752937033
2008	122	15	3.89	11.94	0	414.0701754	256.5808907	49683	20.3081	9.2384638
2008	123	23.33	9.44	19.51	0.66	761.6350877	312.7389991	49823	20.81798	10.52405147
2008	124	19.44	10	16.85	0.82	484.7017544	286.893186	49960	21.78608	12.1339625
2008	125	16.67	2.78	12.85	0	516.7719298	383.8550641	50096	21.09042	11.81545783
2008	126	20.56	5.56	16.43	0	674.7789474	540.9905567	50231	20.67994	11.38136205
2008	127	22.78	8.33	18.81	0	752.9473684	416.8674857	50363	20.32882	11.7097435
2008	128	26.11	12.78	22.44	0.21	870.1122807	489.7494883	50495	19.93679908	12.30688567
2008	129	21.11	6.67	17.14	0.99	684.2807018	207.9386766	50624	20.83029331	13.34712938
2008	130	12.22	7.78	11	0	179.5649123	103.4197508	50751	21.624842	12.22579976
2008	131	18.33	6.67	15.12	0.05	518.9263158	381.7740745	50877	20.34796254	11.66244284
2008	132	16.11	1.11	11.99	2.35	518.3789474	224.9838091	51000	19.50233407	10.80254022
2008	133	10	2.22	7.86	0	242.4	137.1146753	51122	19.06580292	9.519620525
2008	134	22.22	7.22	18.1	0.015	743.0105263	575.66657	51241	18.93345466	10.27582963
2008	135	21.67	10	18.46	0.115	628.645614	288.7484787	51358	20.11689832	11.08212859
2008	136	22.78	8.89	18.96	1.31	738.0280702	415.42063	51473	21.13321356	12.17108912
2008	137	11.11	5.56	9.58	0.02	201.5017544	65.09788637	51586	19.85644888	11.44878784
2008	138	18.89	6.67	15.53	0.61	550.5192982	216.2368985	51697	19.24842744	10.63123288
2008	139	15.56	4.44	12.5	0.05	428.0421053	237.6770903	51805	19.06580292	10.64606126
2008	140	12.78	4.44	10.49	0.98	301.1508772	339.9484532	51910	18.93345466	10.07822076
2008	141	12.78	6.11	10.94	0.47	256.322807	149.9177425	52014	20.11689832	9.430446804
2008	142	15	6.11	12.56	0.12	359.3473684	293.1333174	52114	21.32576	9.436310221
2008	143	13.33	6.67	11.5	0	264.9403509	380.6849009	52212	20.98066	10.21896287
2008	144	18.89	6.11	15.38	0	564.2736842	492.9032541	52308	20.6462	10.17391217
2008	145	21.67	6.11	17.39	0	731.9578947	534.8152045	52400	20.2598	10.89386005
2008	146	23.89	9.44	19.92	0	801.9157895	588.2330913	52490	19.93346	11.36455562
2008	147	29.44	13.89	25.17	0	1131.242105	493.8791628	52577	19.64744	12.47733855
2008	148	27.22	7.22	21.72	0	1109.866667	331.4492741	52662	18.99084	14.140318
2008	149	19.44	6.11	15.78	0	596.3157895	589.7988995	52743	18.38492	13.2459027
2008	150	24.44	8.33	20.01	0	871.8105263	575.2282476	52821	17.86762	12.40674173
2008	151	26.11	12.22	22.29	0.22	889.5859649	463.3561333	52896	17.78124	12.74551615
2008	152	27.22	17.78	24.62	0	745.4877193	356.6168291	52969	17.4668	14.60018417
2008	153	25.56	10	21.28	0	913.1789474	490.0749978	53038	16.48624	15.01848667
2008	154	25	13.33	21.79	0	757.5298246	547.8393135	53103	15.84658	14.227775
2008	155	27.78	15	24.26	2.01	930.4982456	382.7781087	53166	18.86666	14.39901567
2008	156	21.11	17.78	20.19	0.15	232.4	90.92055888	53225	21.17904	15.3095195
2008	157	28.33	19.44	25.89	0	758.1894737	349.5148782	53281	20.55772	16.57308333
2008	158	32.78	20.56	29.42	0	1181.515789	530.0017723	53334	19.7173	18.206381
2008	159	33.33	23.33	30.58	0	1067.480702	522.1636996	53383	18.65638	18.92441467
2008	160	32.22	22.78	29.62	0	969.2842105	433.6022586	53429	17.28032	19.4773175
2008	161	33.89	21.67	30.53	1.09	1251.333333	551.3121458	53471	16.22038	19.88906983
2008	162	32.22	15.56	27.64	0.11	1357.122807	413.4093409	53510	16.48414	19.485167
2008	163	28.33	16.11	24.97	0	934.1684211	582.1161018	53546	15.53676	18.56332033
2008	164	30.56	17.78	27.04	0.04	1079.873684	552.0433484	53577	14.57314	18.24805733
2008	165	31.67	19.44	28.31	0.065	1115.017544	442.8061252	53606	13.96316	18.53325
2008	166	25	15.56	22.4	0.005	661.0736842	182.7843015	53630	13.35612	18.82461883
2008	167	27.22	16.67	24.32	0.68	803.0315789	555.3074855	53651	13.22676	18.45423867
2008	168	26.67	13.89	23.15	0.82	875.8596491	359.816756	53669	16.8536	17.66651343
2008	169	19.44	13.33	17.76	0.14	352.6877193	304.6858765	53682	15.36008	16.25672327
2008	170	18.89	8.89	16.14	0	487.4385965	234.6109382	53693	14.42236	15.3308354
2008	171	20	11.11	17.56	0	480.1614035	346.158155	53699	13.69786	14.35160097
2008	172	26.11	13.33	22.6	0	849.5789474	475.8327593	53702	12.97154	15.06330377
2008	173	28.33	15	24.67	1.01	982.3789474	523.4232874	53701	15.2996	16.07452205
2008	174	26.67	15.56	23.61	0.03	805.2491228	549.0393442	53696	14.22594	17.06005004
2008	175	25.56	12.78	22.04	0.1	823.9719298	487.6403991	53688	13.245464	16.96363521
2008	176	25	13.33	21.79	0	757.5298246	430.7780794	53676	14.50811	16.27542573
2008	177	27.22	15	23.86	0.15	879.6982456	446.2551336	53661	15.541184	16.29200684
2008	178	28.33	18.33	25.58	1.2	822.3719298	309.2867097	53641	14.50811	18.34277355
2008	179	26.67	19.44	24.68	0	595.7403509	281.0246049	53619	13.38342	18.27080027
2008	180	28.89	18.89	26.14	0.04	847.0035088	353.5374108	53592	12.8629	18.97255817
2008	181	27.22	17.22	24.47	0.14	774.9263158	312.0303465	53562	12.13546	18.77389167
2008	182	25.56	15.56	22.81	0	708.1122807	420.9874798	53529	11.41012	18.435032
2008	183	22.78	13.33	20.18	0	584.9122807	303.0586596	53491	10.74666	17.59915983
2008	184	27.22	15	23.86	0.02	879.6982456	566.1027396	53451	10.18568	17.18966667
2008	185	25.56	18.33	23.57	0.02	561.3684211	233.8095734	53407	9.91016	17.19759633
2008	186	23.89	17.78	22.21	2.12	450.7157895	201.996072	53359	9.7115	17.5713325
2008	187	24.44	16.11	22.15	0	587.5438596	259.0531624	53308	9.99234	17.748452
2008	188	27.78	17.22	24.88	0.01	827.3754386	373.8814819	53254	10.28774	18.25809733
2008	189	27.22	18.89	24.93	0	682.4421053	299.9903112	53196	10.3961	19.04244917
2008	190	30.56	18.89	27.35	0.44	1022.140351	507.3790075	53135	11.15028	19.66559717
2008	191	26.67	16.11	23.76	0	779.2982456	191.951944	53071	11.48124	19.69652967
2008	192	26.67	15	23.46	0	829.9649123	569.7669536	53004	10.69164	19.18777867
2008	193	28.33	16.67	25.12	0	908.1964912	476.678136	52933	10.18036	18.553595
2008	194	31.11	19.44	27.9	0.33	1052.449123	524.6926918	52860	9.87166	19.39912633
2008	195	27.78	17.22	24.88	0	827.3754386	358.585225	52783	9.51368	20.28596433
2008	196	26.67	15.56	23.61	0	805.2491228	526.3493145	52703	8.99162	19.53574683
2008	197	28.33	16.11	24.97	0	934.1684211	564.638717	52620	8.64876	18.58602283
2008	198	31.11	17.22	27.29	0	1166.105263	561.3198873	52535	8.45724	18.85892847
2008	199	31.67	20	28.46	0.12	1083.508772	442.5040035	52446	8.3129	19.76299733
2008	200	32.22	21.11	29.17	0	1081.25614	416.0354601	52355	8.16478	20.3687942
2008	201	31.67	20	28.46	0.385	1083.508772	521.6179433	52261	7.91712	20.67772447
2008	202	32.22	18.89	28.56	0.005	1208.421053	411.9994035	52164	7.9069	20.33071987
2008	203	29.44	18.33	26.39	0.4	934.6666667	407.7012752	52065	8.52066	20.47445883
2008	204	28.89	19.44	26.29	1.29	814.6315789	417.8864781	51963	12.6711	20.400245
2008	205	23.33	15	21.04	1.04	552.8491228	135.0205737	51858	16.51984	19.40701117
2008	206	25	14.44	22.1	0	711.6350877	348.9258654	51751	13.93418	18.276037
2008	207	27.78	15.56	24.42	0	906.5894737	537.24806	51642	12.78632	18.20506006
2008	208	28.33	18.33	25.58	0	822.3719298	436.2145628	51530	12.29282	18.77637125
2008	209	27.22	15.56	24.01	0	855.3824561	490.6512277	51417	11.4832	19.465443
2008	210	28.89	17.22	25.68	0	935.6210526	495.068513	51300	10.36068	18.86356117
2008	211	30	17.78	26.64	0.52	1021.207018	478.1304312	51182	9.41806	19.39652367
2008	212	29.44	18.33	26.39	0	934.6666667	332.7148624	51062	9.21086	19.3130665
2008	213	28.89	17.78	25.83	0	907.4596491	466.8737199	50939	8.82684	20.10674583
2008	214	28.33	18.89	25.74	0.01	791.0035088	489.7133003	50815	8.36344	19.791718
2008	215	27.78	16.11	24.57	0	881.4526316	405.3909207	50688	7.82976	19.841906
2008	216	25.56	15	22.65	0	733.6140351	403.2089845	50560	7.45568	19.05662733
2008	217	27.78	16.67	24.72	0.1	855.0596491	480.3117008	50430	7.27816	18.76093617
2008	218	24.44	19.44	23.07	0.39	394.4982456	147.0809309	50298	7.29552	19.1827862
2008	219	28.89	16.67	25.53	0.05	962.4561404	531.9311105	50164	7.17386	19.97472977
2008	220	26.67	14.44	23.31	0.1	853.4947368	348.9732666	50029	6.97982	18.82840133
2008	221	23.89	12.22	20.68	0	712.2807018	436.2661605	49892	6.83352	17.95311983
2008	222	24.44	13.89	21.54	0.02	690.2175439	513.7329802	49754	6.71144	17.40192217
2008	223	25	14.44	22.1	0.04	711.6350877	470.7203884	49614	6.53896	17.440086
2008	224	21.67	14.44	19.68	0	453.9789474	312.7705826	49472	6.47708	17.01265883
2008	225	24.44	12.78	21.24	0	734.6105263	409.426409	49330	6.37446	17.29702883
2008	226	27.78	13.89	23.96	0.55	974.7929825	429.2957336	49186	6.43592	17.39620883
2008	227	25.56	15.56	22.81	0	708.1122807	329.5942515	49040	6.49766	17.70935733
2008	228	25.56	12.78	22.04	0	823.9719298	439.8335024	48894	6.38524	17.56981567
2008	229	25.56	14.44	22.5	0	757.9157895	484.6411791	48746	6.32308	17.17343333
2008	230	27.22	15	23.86	0	879.6982456	478.800567	48597	6.14318	17.34158533
2008	231	29.44	17.22	26.08	0	991.4596491	518.036013	48446	6.702662	17.815683
2008	232	26.11	10	21.68	0	957.4807018	373.5842578	48295	6.587876	18.09006397
2008	233	25.56	11.11	21.58	0	880.4421053	556.4420704	48143	6.415697	17.01953122
2008	234	29.44	12.78	24.86	0	1168.575439	534.7071961	47990	6.300911	16.91055603
2008	235	30	16.11	26.18	0	1099.087719	526.7149864	47836	6.150311768	18.07648504
2008	236	27.78	17.78	25.03	0	798.3508772	485.3607573	47681	6.067665848	18.1742005
2008	237	31.11	18.89	27.75	0.13	1082.968421	466.5665764	47525	6.47309	18.49916883
2008	238	27.78	12.78	23.65	0	1014.603509	522.7203322	47368	7.62095	18.91014473
2008	239	26.11	13.33	22.6	0.003895833	849.5789474	518.6820102	47210	9.34274	17.56332097
2008	240	26.67	13.89	23.15	0.634125	875.8596491	428.637394	47052	11.06453	17.061494
2008	241	17.78	15.56	17.17	0.228345833	133.9719298	84.23297783	46893	11.21692	16.63892083
2008	242	21.11	16.67	19.89	0	298.2175439	150.2490872	46734	10.80938	17.00096433
2008	243	27.22	12.22	23.1	0	984.1192982	300.8209306	46573	10.30286	17.98709917
2008	244	27.22	13.33	23.4	0	945.6491228	532.5863855	46413	9.75616	17.38625133
2008	245	26.67	12.78	22.85	0	917.2561404	536.3699008	46251	9.20582	17.1286
2008	246	29.44	14.44	25.32	0	1110.919298	523.7450902	46089	8.74256	17.089326
2008	247	30.56	15.56	26.43	0	1179.347368	503.5343914	45927	8.25858	17.656088
2008	248	31.67	16.11	27.39	0	1274.596491	476.7370566	45764	7.81002	18.103045
2008	249	31.11	20.56	28.21	0.05584375	986.9403509	447.4569805	45600	7.40108	18.71906867
2008	250	22.78	12.78	20.03	0.001297917	607.6070175	101.9047052	45437	7.16112	18.9557967
2008	251	25	13.89	21.94	0.002595833	735.1508772	415.8480758	45272	6.83632	18.22116998
2008	252	26.67	13.89	23.15	0.62999375	875.8596491	473.1556643	45108	6.62086	17.60944118
2008	253	20	9.44	17.1	0.0122	537.7473684	102.620273	44943	6.79936	17.39391928
2008	254	21.11	10.56	18.21	0.00726875	572.877193	480.432658	44778	6.99158	16.2708472
2008	255	20.56	13.33	18.57	0.68049375	426.7087719	299.5629489	44613	10.82338	15.89626573
2008	256	21.11	18.33	20.35	0.05988125	197.4105263	83.11984966	44447	16.13526	17.0476706
2008	257	24.44	19.44	23.07	0.0077875	394.4982456	198.4026175	44281	16.07492	18.2820114
2008	258	29.44	18.89	26.54	0	904.1824561	369.6944269	44115	15.60662	19.38527015
2008	259	22.78	11.67	19.72	0	649.7964912	294.224129	43949	14.93616	19.11867531
2008	260	20	9.44	17.1	0.002595833	537.7473684	222.82053	43783	14.54696	17.02985466
2008	261	23.33	10	19.67	0	745.277193	468.0879463	43617	14.22314	16.09003235
2008	262	21.11	7.78	17.44	0	656.7087719	436.2917886	43450	13.7715	16.11321985
2008	263	20.56	8.33	17.19	0	606.2245614	413.8601653	43284	13.50816	15.26621954
2008	264	21.11	10	18.06	0.003895833	591.4526316	403.1932108	43117	13.3039	15.05129053
2008	265	24.44	10	20.47	0.002595833	827.4035088	401.8075588	42951	13.0876	15.15936392
2008	266	19.44	7.78	16.24	0	553.522807	187.1680105	42784	12.8146	15.29815823
2008	267	21.11	8.89	17.75	0	625.8315789	404.2231215	42618	12.52466	14.7416825
2008	268	23.33	9.44	19.51	0	761.6350877	453.0235282	42452	12.21736	14.50056167
2008	269	20.56	11.11	17.96	0.00519375	516.3438596	359.0923039	42286	11.97754	14.60048933
2008	270	17.78	12.22	16.25	0.307825	297.5859649	83.48709102	42120	12.17564	14.80417783
2008	271	21.11	16.67	19.89	0.688397917	298.2175439	143.7324865	41954	15.0525	16.073031
2008	272	22.22	13.89	19.93	0.0077875	519.9087719	212.6278068	41788	16.40056	17.13759367
2008	273	20.56	10	17.65	0	555.0736842	265.3168003	41623	16.12868	16.52811583
2008	274	18.33	10	16.04	0.233795833	417.4245614	186.3790423	41458	16.38852	14.893194
2008	275	15.56	8.33	13.57	0	320.5614035	170.1259968	41293	16.58984	14.16487033
2008	276	12.78	8.33	11.56	0	185.5578947	236.8332009	41129	16.34582	13.09481017
2008	277	15	5	12.25	0.103904167	388.154386	160.6151276	40964	16.63142	12.3758245
2008	278	14.44	6.11	12.15	0	332.6807018	226.3705373	40801	16.7619	11.565312
2008	279	16.67	7.78	14.22	0.002595833	396.3438596	407.8936202	40637	16.5512	12.1173195
2008	280	16.67	2.22	12.69	0.0181875	526.7087719	366.8718959	40474	16.20162	12.0149635
2008	281	16.67	2.78	12.85	0.01688125	516.7719298	422.8260424	40312	16.12014	10.81735503
2008	282	16.67	7.22	14.07	0.035064583	412.7508772	213.3915265	40150	16.43906	11.14282967
2008	283	21.67	8.89	18.15	0	662.4070175	380.3018541	39989	16.32034	13.40339767
2008	284	21.11	6.11	16.99	0	696.8982456	412.4050062	39828	16.11118	12.97412733
2008	285	21.11	5.56	16.83	0	708.7719298	406.507059	39667	15.9989	12.35403333
2008	286	22.78	7.78	18.65	0	767.0315789	397.6044247	39508	15.8967	12.53982267
2008	287	25	8.89	20.57	0	899.6140351	299.6990576	39349	15.83384	12.8040885
2008	288	26.11	8.89	21.37	0	985.8385965	331.7521536	39191	15.9058	13.275849
2008	289	23.33	12.78	20.43	0	649.0245614	306.2424235	39033	15.84182	14.78190567
2008	290	20	8.89	16.94	0	555.0877193	93.87389633	38876	15.49014	14.821793
2008	291	12.22	2.78	9.62	0	316.6035088	150.1666355	38720	15.14238	12.36477083
2008	292	10.56	-1.11	7.35	0	324.5192982	281.5781685	38565	14.93042	10.43657772
2008	293	11.67	-1.11	8.15	0.003895833	365.1789474	400.6047789	38411	14.75612	9.469537217
2008	294	16.11	-0.56	11.53	0.002595833	541.9649123	356.5322414	38258	14.6969	8.800280967
2008	295	10.56	2.78	8.42	0	250.8	210.9543805	38106	14.61766	9.1798608
2008	296	9.44	0.56	7	0	256.554386	273.5772309	37955	14.46184	8.957874717
2008	297	12.22	0.56	9.01	0	359.8245614	378.5928879	37804	14.34732	8.341854633
2008	298	13.89	6.67	11.9	1.540483333	290.6175439	162.9325963	37655	16.94866	8.4012301
2008	299	14.44	3.33	11.39	0.005191667	400.4912281	41.91263614	37507	17.4794	9.943415233
2008	300	16.67	3.89	13.15	0	494.9824561	353.5821787	37361	17.21592	9.468852383
2008	301	8.89	3.89	7.51	0.007791667	161.8526316	244.5746877	37215	16.93116	9.5886378
2008	302	6.67	1.11	5.14	0.18833125	153.4105263	95.78993705	37071	17.18862	8.43952235
2008	303	4.44	-0.56	3.07	0.001297917	122.6666667	100.3100554	36928	17.6922	6.80652015
2008	304	8.89	-0.56	6.29	0	257.7403509	357.8629893	36787	17.42508	6.5825919
2008	305	18.33	3.33	14.21	0	592.1684211	340.1117452	36647	17.38756	7.014874533
2008	306	17.78	4.44	14.11	0	540.7368421	223.7576369	36509	17.2043	8.818536567
2008	307	9.44	3.89	7.92	0	182.1403509	181.3543932	36372	17.0902	8.753033867
2008	308	14.44	7.22	12.46	0	300.322807	249.5782207	36237	17.02664	9.01019265
2008	309	13.89	8.89	12.51	0.01	218.3298246	96.94850965	36103	17.12212	9.598966183
2008	310	18.33	8.89	15.74	0	454.7368421	248.7287141	35971	17.11988	10.56963005
2008	311	20	10	17.25	0	519.4947368	234.5499588	35841	17.14368	11.336407
2008	312	21.67	9.44	18.31	0.24	645.9719298	298.1475165	35713	17.39358	11.88558017
2008	313	12.78	4.44	10.49	0	301.1508772	129.9425068	35586	17.2701	11.11031983
2008	314	8.33	1.67	6.5	0	195.6070175	141.7309761	35462	17.04134	9.271604183
2008	315	3.89	0.56	2.97	0	84.36491228	150.3922491	35339	16.88916	7.858047233
2008	316	4.44	0	3.22	0	111.4736842	119.4197512	35219	16.81762	7.0329933
2008	317	10	0.56	7.4	1.51	276.2175439	220.408961	35100	18.23624	7.22607755
2008	318	8.89	5.56	7.97	0	115.0035088	37.40595733	34984	18.3369	7.51509305
2008	319	11.67	8.33	10.75	0.59	135.8245614	91.56539857	34870	18.913	8.6705713
2008	320	13.33	2.22	10.28	0.05	374.4701754	40.42265269	34759	18.48292	9.609258383
2008	321	5	0.56	3.78	0.04	115.4596491	110.6908441	34649	18.19382	7.790283567
2008	322	2.78	-3.89	0.94	0	137.4175439	115.1009892	34542	17.9757	6.477928067
2008	323	-0.56	-6.67	-2.24	0	103.4105263	207.8785651	34438	17.73042	4.656617983
2008	324	0	-5.56	-1.53	0	99.83157895	214.7846872	34336	17.67666	3.4786987
2008	325	3.89	-2.78	2.06	0.15	147.677193	122.3196527	34237	17.64908	3.930760717
2008	326	-1.11	-6.67	-2.64	0	92.70175439	136.1117667	34140	17.6467	3.564380583
2008	327	-1.67	-6.11	-2.89	0	74.85614035	172.6019213	34046	17.72454	2.831294317
2008	328	2.78	-6.67	0.18	0.68	173.9508772	279.0656561	33954	17.51566	2.469676515
2008	329	2.22	-5.56	0.08	0.94	147.7754386	78.4923455	33866	17.75842	2.120269915
2008	330	3.89	0	2.82	0.05	96.26666667	156.6523061	33780	18.26984	2.53703195
2008	331	1.67	0	1.21	0	39.15789474	87.50968538	33697	18.66618	2.69115255
2008	332	5.56	-2.22	3.42	0	183.4526316	253.4639755	33618	18.46472	2.828267817
2008	333	5.56	-1.11	3.72	0	164.3087719	220.9828071	33541	19.67348	2.762012017
2008	334	5.56	-3.33	3.11	0.73	200.645614	257.9307924	33467	19.214336	3.035957943
2008	335	3.89	0	2.82	0.41	96.26666667	24.90331927	33397	18.984764	2.794495375
2008	336	6.11	0	4.43	0	159.4596491	115.7322153	33329	18.755192	3.531155212
2008	337	2.22	-5	0.24	0	140.3578947	116.6824771	33265	18.410834	3.581130722
2008	338	6.67	-4.44	3.61	0	246.7719298	261.297977	33204	18.181262	2.91681817
2008	339	7.78	-3.89	4.57	0	272.2807018	28.01388771	33146	17.836904	3.566464285
2008	340	-1.67	-8.33	-3.5	0	102.2736842	135.9323793	33092	17.4885	2.224762967
2008	341	-1.67	-8.33	-3.5	0.03	102.2736842	128.7813957	33041	17.43334	1.418810183
2008	342	-3.89	-9.44	-5.42	0	76.76491228	139.1650725	32993	17.23832	1.02373055
2008	343	-1.11	-8.89	-3.25	0	118.2526316	75.49130897	32949	17.15488	0.762486335
2008	344	11.67	-2.22	7.85	1.47	380.6105263	169.9334544	32909	19.0509	1.387687502
2008	345	12.22	-1.11	8.56	1.365	386.2526316	29.18443009	32872	19.53362	2.945005083
2008	346	1.67	-1.11	0.9	1.145	62.37894737	19.38298502	32838	19.3876	3.033106483
2008	347	1.67	-6.11	-0.47	0	142.4561404	73.86144239	32808	18.71938	2.724113417
2008	348	-0.56	-6.11	-2.08	0	96.21052632	232.241691	32782	18.54088	2.154702083
2008	349	9.44	-1.67	6.39	0.265	294.477193	241.1983382	32759	18.62068	2.4239456
2008	350	13.89	-1.67	9.61	0.315	459.7824561	67.90706313	32740	18.65414	3.438138867
2008	351	1.11	-2.22	0.19	1.07	70.59649123	65.43598443	32724	18.62838	3.259205333
2008	352	3.33	-0.56	2.26	0	92.91929825	39.18570131	32712	18.90278	2.7973959
2008	353	2.22	-0.56	1.46	3.18	64.64561404	85.3470893	32704	19.37738	2.976317583
2008	354	5.56	-4.44	2.81	0.02	216	14.82786011	32699	19.06014	2.420737733
2008	355	-2.78	-5.56	-3.54	0.12	46.58245614	132.1266049	32698	18.84776	2.046831483
2008	356	1.67	-15.56	-3.07	0	214.0280702	175.0393108	32701	18.20474	1.6545169
2008	357	-7.78	-14.44	-9.61	0	66.78596491	250.8328168	32707	17.51944	0.853892362
2008	358	1.11	-11.11	-2.25	3.335	179.6561404	143.4426909	32717	19.4205	0.241004086
2008	359	9.44	-0.56	6.69	0.315	276.5824561	43.02292524	32731	19.53586	0.245230586
2008	360	0	-5.56	-1.53	0	99.83157895	166.6514724	32749	19.09836	0.259533345
2008	361	2.78	-4.44	0.79	0.36	145.5578947	176.0151134	32770	19.65094	0.621395968
2008	362	9.44	0	6.85	0.01	266.8421053	122.6651138	32794	19.29408	0.773267809
2008	363	12.22	0	8.86	0	369.1719298	136.9004529	32822	19.1139	1.001080324
2008	364	6.67	-1.11	4.53	0	196.8912281	248.2670096	32854	18.9011	1.083118947
2008	365	3.89	-1.11	2.51	0.08	118.4	251.7406846	32889	18.69432	0.956272686
2009	1	1.67	-9.44	-1.39	0	264.1864349	148.9266191	32928	18.27208	0.590941398
2009	2	-1.67	-9.44	-3.81	0	252.0662643	266.3646318	32971	18.17212	0.592997263
2009	3	5.56	-5.56	2.5	0	338.4527851	148.407526	33017	18.19368	0.396095402
2009	4	1.11	-7.78	-1.33	0	169.1340428	240.6296592	33066	17.95498	0.361824697
2009	5	3.89	-7.22	0.83	0.01	266.6382496	125.7023325	33119	18.1374	0.634411214
2009	6	3.89	-3.33	1.9	0.44	227.4430348	179.5136229	33175	17.98956	0.523533892
2009	7	0	-3.33	-0.92	1.83	50.3711006	34.05107786	33234	18.8458	0.558141683
2009	8	2.22	-3.33	0.69	0	165.2672999	34.38745094	33296	19.22772	0.429593151
2009	9	-2.22	-5.56	-3.14	0	139.4944835	137.3106752	33362	18.64224	0.311407104
2009	10	-2.78	-5.56	-3.54	0.955	49.44759858	203.0743691	33431	18.22616	0.249778536
2009	11	-0.56	-5.56	-1.93	0.095	108.3172789	50.55373266	33503	18.30666	0.201448939
2009	12	-3.33	-6.11	-4.1	0	119.1433274	119.4366562	33579	18.30036	0.218612373
2009	13	-0.56	-6.67	-2.24	0	110.799546	180.2037993	33657	18.1934	0.207900998
2009	14	0.56	-12.78	-3.11	0.085	98.79150683	89.44917626	33738	18.03786	-0.039953369
2009	15	-7.78	-13.33	-9.31	0.165	98.60923509	183.6248482	33822	17.8798	-0.130095666
2009	16	-8.89	-17.22	-11.18	0	94.76454865	188.6523371	33909	17.69486	-0.438000144
2009	17	-13.33	-18.89	-14.86	0	68.80729022	262.884974	33999	17.39414	-0.446218965
2009	18	-6.67	-19.44	-10.18	0.23	44.73166455	205.7560984	34092	17.22068	-0.322418055
2009	19	-3.33	-7.78	-4.56	0.04	102.9768209	111.0455661	34187	17.24602	-0.362478682
2009	20	-4.44	-12.22	-6.58	0	118.3555004	191.0336955	34285	17.30356	-0.298334826
2009	21	-3.89	-12.78	-6.33	0	155.8506765	147.9699517	34386	17.28242	-0.297580555
2009	22	-4.44	-12.78	-6.74	0	150.5775132	245.0726865	34489	17.20402	-0.19275281
2009	23	4.44	-5.56	1.69	0	233.9671771	293.2418133	34595	18.32262	-0.086051338
2009	24	10.56	-2.78	6.89	0.00445	438.592215	275.4431917	34703	19.52088	-0.248217213
2009	25	-1.11	-12.78	-4.32	0.018333333	108.7026327	184.6669932	34814	18.3999	-0.695011805
2009	26	-7.22	-12.78	-8.75	0.000683333	107.2715216	128.5337599	34926	17.37496	-0.6714299
2009	27	-2.78	-10.56	-4.92	0.009583333	153.6160651	245.0883042	35042	17.2449	-0.67522184
2009	28	-2.78	-6.67	-3.85	1.365966667	67.40931715	132.1321024	35159	17.19338	-0.625323248
2009	29	1.67	-8.33	-1.08	0.008666667	211.3752309	54.83444544	35278	17.26142	-0.569163705
2009	30	-0.56	-8.33	-2.69	0.087966667	154.5088648	266.3242016	35400	17.4122	-0.577287268
2009	31	0	-11.11	-3.06	0.001216667	203.5899768	189.2529719	35523	17.32414	-0.617125428
2009	32	-1.11	-11.67	-4.01	0	164.3049002	313.979725	35649	17.51734	-0.436206182
2009	33	9.44	-1.11	6.54	0.060466667	152.2796808	321.2822288	35776	18.70734	-0.342651662
2009	34	3.89	-4.44	1.6	0.004133333	147.6905964	67.77464404	35905	19.17284	-0.41716836
2009	35	1.67	-8.89	-1.24	0.09065	176.1774139	245.4816171	36036	19.08044	-0.545501852
2009	36	-3.89	-16.11	-7.25	0.001	147.1429927	210.7043162	36169	18.52562	-0.781788905
2009	37	-7.22	-15.56	-9.51	0	139.7014676	350.8152565	36303	18.45982	-0.739787707
2009	38	3.33	-8.33	0.12	0	237.8874798	348.6420666	36440	19.03032	-0.418762959
2009	39	12.78	-2.78	8.5	0.000316667	419.5200398	211.018834	36577	19.7306	-0.468114993
2009	40	10.56	-2.22	7.04	0	386.0580639	210.2760417	36716	19.45046	-0.192399073
2009	41	7.22	-2.22	4.62	0.157616667	200.2813618	330.9002215	36857	19.48	0.283540747
2009	42	10	2.78	8.01	0.013283333	279.2561642	82.5873796	36999	19.75818	1.42649607
2009	43	16.67	5	13.46	0.499733333	600.4362025	252.5509846	37143	19.88292	1.732218424
2009	44	6.11	1.11	4.74	0.0026	318.3311801	84.28058705	37287	19.3967	1.35426397
2009	45	2.22	-0.56	1.46	0.107133333	167.2721316	70.19759102	37433	19.17676	1.254566053
2009	46	0.56	-5	-0.97	0.005033333	227.6195056	119.3761999	37581	19.10312	1.176902235
2009	47	2.22	-5.56	0.08	1.67E-05	272.1943102	340.7634785	37729	18.88542	0.900053468
2009	48	0.56	-7.78	-1.74	0	236.7528368	221.9448127	37879	18.64056	0.624521288
2009	49	3.33	-7.78	0.28	0.480608333	161.2265878	374.4182053	38029	18.53836	0.562335183
2009	50	4.44	-1.67	2.76	0.280633333	194.6061353	37.34750237	38181	19.48938	0.575147688
2009	51	2.22	-8.89	-0.83	0.008408333	251.1921475	185.6233207	38334	18.87646	0.139543287
2009	52	-3.89	-8.89	-5.26	0	223.1231013	219.3650314	38487	18.52492	0.038640739
2009	53	3.33	-7.22	0.43	0.093208333	260.7307378	381.526353	38642	18.87996	0.111804161
2009	54	0	-6.67	-1.83	0.049475	229.8927661	197.5896447	38798	18.56174	-0.106102778
2009	55	-3.89	-11.11	-5.87	0	188.3726894	204.3501619	38954	18.15602	-0.360381787
2009	56	-0.56	-11.11	-3.46	0	249.314548	418.0428447	39111	18.2193	-0.169163195
2009	57	8.33	-7.22	4.06	0.015366667	428.006074	403.8321105	39269	18.62978	0.456634912
2009	58	12.78	2.78	10.03	0.744733333	279.7922266	193.2492862	39428	19.36464	1.073350702
2009	59	12.78	-3.89	8.19	0.000133333	487.0341169	83.98632078	39587	19.60362	1.242243283
2009	60	1.67	-4.44	-0.01	0	345.0601914	346.5220002	39747	19.29016	1.129675917
2009	61	3.89	-8.33	0.53	3.33E-05	354.7241505	282.3341472	39907	18.94702	0.513456023
2009	62	-5.56	-13.89	-7.85	0	201.4583111	332.4521157	40068	18.4034	0.091859722
2009	63	-2.22	-13.89	-5.43	0	249.8397379	444.7236368	40230	18.19984	-0.134418055
2009	64	2.78	-11.11	-1.04	0	353.4684994	450.1751326	40392	18.2599	0.222493982
2009	65	11.67	-7.22	6.47	0	543.6752737	430.2774109	40555	18.60318	1.591128935
2009	66	20	8.33	16.79	0.004733333	744.2677937	290.0186306	40718	18.74962	3.661941667
2009	67	21.67	12.78	19.22	0.840566667	457.0879083	170.6383996	40882	19.33986	5.0602231
2009	68	15	6.11	12.56	0.508116667	356.2603444	43.68136159	41046	20.04112	4.68408935
2009	69	10	1.67	7.71	0.06885	242.4558126	115.8432025	41210	19.5129	3.922303933
2009	70	7.22	2.22	5.85	0.024183333	404.9297895	76.48230685	41375	19.44962	4.823018283
2009	71	17.22	-2.78	11.72	3.33E-05	795.2153365	382.6800915	41540	19.14386	3.57351065
2009	72	2.78	-5	0.64	0	319.2155879	311.8485334	41705	18.90698	3.26449745
2009	73	6.67	-5	3.46	0	326.2932209	458.2364378	41870	18.78756	3.602295367
2009	74	11.11	-1.11	7.75	0	333.8742675	383.1196646	42036	18.74598	4.896749533
2009	75	13.89	2.22	10.68	0.651216667	274.9745386	385.1912288	42202	18.90362	5.125130783
2009	76	11.67	3.33	9.38	0.127316667	267.5401823	122.9820788	42368	19.80662	5.551244217
2009	77	12.78	2.78	10.03	0	448.9978894	251.8459513	42534	19.56372	6.145179867
2009	78	22.78	3.89	17.58	0.003683333	1053.709672	427.3700862	42701	19.40272	6.74820995
2009	79	12.78	-2.22	8.65	0.004033333	629.3741589	316.2247729	42867	19.03578	4.972917817
2009	80	6.67	-6.11	3.15	0	449.3988361	332.6508744	43033	18.70888	3.879189617
2009	81	8.33	-6.11	4.36	0	434.1245019	400.9919101	43200	18.60766	4.06765255
2009	82	12.22	-3.33	7.94	0	772.7372812	349.9908474	43366	18.5224	4.113649067
2009	83	7.78	-6.67	3.81	0	602.8603107	522.2039271	43533	18.2802	3.667400933
2009	84	8.89	-6.11	4.76	0.000116667	618.5631465	505.8527924	43699	18.1199	3.5882405
2009	85	10	2.22	7.86	1.215633333	109.8442733	255.4958726	43865	18.98692	4.112110883
2009	86	5.56	1.67	4.49	0.001033333	272.2866165	44.96531238	44032	19.86094	5.278441433
2009	87	14.44	2.78	11.24	0.335508333	168.8633258	396.013905	44198	19.99184	6.180595833
2009	88	12.22	7.22	10.85	0.7059	227.6366565	88.83260866	44363	20.14752	6.663504167
2009	89	10.56	1.11	7.96	0.068941667	343.3438813	143.5124452	44529	19.89622	5.470238667
2009	90	3.89	0	2.82	0	353.6276041	157.9765179	44695	19.66942	6.037169217
2009	91	16.11	0.56	11.83	0.710925	256.8713881	502.1693005	44860	19.89986	6.149077083
2009	92	8.89	6.11	8.13	0.019375	314.3319836	104.8415425	45025	20.05162	7.900946067
2009	93	18.89	6.67	15.53	1.815816667	278.580352	457.0469304	45190	20.70808	8.7522632
2009	94	15.56	3.33	12.19	0.02295	640.2511348	78.68845431	45354	20.13226	7.71594885
2009	95	8.89	2.22	7.06	0	645.7900798	370.987003	45518	19.774	7.8282294
2009	96	18.89	2.78	14.46	0.451816667	490.0568742	520.7510143	45681	20.09054	8.074059017
2009	97	12.22	-1.11	8.56	0.01775	442.7006644	174.8852091	45845	19.8146	6.091749533
2009	98	3.89	-0.56	2.67	0.001783333	422.2031368	241.4112168	46007	19.50492	5.906940733
2009	99	10	-0.56	7.1	0	604.6907822	349.1250398	46169	19.29772	6.201961117
2009	100	15	1.11	11.18	0.184116667	399.0540823	538.7172023	46331	19.15072	6.25099075
2009	101	9.44	3.89	7.92	0.205133333	503.8963151	101.9770144	46492	19.53418	7.347819683
2009	102	12.78	-1.11	8.96	0	778.1438675	441.7033574	46653	19.40356	6.66879815
2009	103	10	-2.78	6.49	0.000966667	547.4747602	568.7578757	46813	19.10312	6.1267449
2009	104	12.78	-1.11	8.96	1.050633333	119.0061886	366.7110362	46972	19.99548	6.233354633
2009	105	7.78	5	7.01	1.37	116.3689887	46.10901222	47131	20.68848	6.429903483
2009	106	7.78	-0.56	5.49	0.000516667	416.5154791	127.0089983	47289	20.1457	7.183044217
2009	107	18.33	1.11	13.6	0	1103.46758	561.7441802	47446	19.9077	8.100519667
2009	108	21.11	4.44	16.53	0	1361.317267	567.7687734	47602	19.67012	9.216704633
2009	109	23.33	10.56	19.82	0.003033333	1347.874024	540.0012498	47758	19.41448	10.05577963
2009	110	20	5	15.88	0.924775	348.6805386	297.7876444	47912	19.78016	8.6613176
2009	111	7.78	4.44	6.86	0.536141667	175.0739881	73.80224379	48066	20.46336	8.794954867
2009	112	17.22	5	13.86	0.023133333	482.297071	306.0611119	48219	20.05848	7.9391236
2009	113	11.11	2.22	8.67	0.143816667	464.8843314	330.1124555	48370	19.91162	7.84872205
2009	114	12.78	3.33	10.18	0.030466667	606.7031419	393.9781394	48521	19.74488	8.74412315
2009	115	23.89	5	18.69	0	1212.598359	434.3815851	48671	19.6809	11.06692868
2009	116	30	13.89	25.57	0	2066.634528	432.1862355	48819	19.41602	12.872462
2009	117	31.11	15	26.68	0	2221.143246	545.8243821	48966	19.04642	14.164437
2009	118	32.22	16.67	27.94	0	1939.849546	541.1794312	49112	18.63944	14.655188
2009	119	29.44	6.67	23.18	0.0001	1225.275917	494.0195019	49257	18.5532	13.543775
2009	120	19.44	7.22	16.08	0.090716667	512.5185758	403.0670332	49401	18.14958	12.18818
2009	121	17.22	11.11	15.54	0.344066667	329.7594936	118.7832805	49543	18.61242	12.70728017
2009	122	21.67	11.11	18.76	0.6231	726.5510594	233.6834902	49683	20.49864	12.89560767
2009	123	17.78	8.33	15.18	0.264616667	280.056739	326.5222745	49823	20.01144	11.576427
2009	124	14.44	8.33	12.76	1.5003	146.8725817	177.8380092	49960	20.79558	11.287524
2009	125	11.11	9.44	10.65	0.673058333	196.1258044	78.73685062	50096	20.7561	11.0739125
2009	126	13.33	9.44	12.26	0.68195	211.5938044	128.2481743	50231	21.0109	11.61468183
2009	127	18.89	11.11	16.75	0.897275	522.6763283	231.2813271	50363	21.02112	12.423324
2009	128	21.11	11.11	18.36	0.219233333	366.700773	327.0009759	50495	20.38888	12.34042883
2009	129	22.22	12.78	19.62	0.023866667	757.6694342	264.7754084	50624	20.30404	13.245162
2009	130	24.44	8.89	20.17	0.001066667	1085.621956	308.7666999	50751	19.71422	12.41621333
2009	131	15.56	6.11	12.96	0.02545	368.7424103	262.9961515	50877	19.17788	11.11687122
2009	132	15.56	3.89	12.35	0.008583333	620.5911312	219.0380354	51000	18.86862	10.92327265
2009	133	16.67	4.44	13.31	0	702.4807696	485.5841102	51122	18.49384	11.17875647
2009	134	21.67	7.22	17.69	1.647083333	282.4456908	481.4579455	51241	20.26722	12.0907205
2009	135	20	11.11	17.56	0.424166667	606.2392927	244.1129897	51358	20.67966	13.3921065
2009	136	24.44	11.11	20.78	1.875883333	472.1160068	506.9961236	51473	20.72138	14.291933
2009	137	26.11	7.78	21.07	0.455283333	1279.800578	329.7628035	51586	20.99438	13.42447633
2009	138	15	3.89	11.94	0	799.4811004	502.5427261	51697	20.18126	11.64920378
2009	139	15.56	2.78	12.04	0	674.835982	608.5060104	51805	19.67796	11.26339255
2009	140	22.22	5.56	17.64	0	1029.752062	602.5725166	51910	19.24984	12.1660175
2009	141	28.33	11.11	23.6	0	1433.767087	589.1760625	52014	18.68116	13.10204817
2009	142	29.44	13.89	25.17	0.00005	1243.95323	601.7772918	52114	18.00244	13.89305683
2009	143	28.89	15.56	25.22	0.097833333	798.0652995	451.671775	52212	17.4402	14.75360467
2009	144	27.78	15.56	24.42	0.219808333	616.3887921	355.0650273	52308	17.24532	15.196075
2009	145	29.44	16.11	25.78	0.215925	1196.570604	388.7268851	52400	18.1983	15.70710833
2009	146	26.11	12.22	22.29	0.580183333	513.7200429	536.1220958	52490	17.7937	13.98719683
2009	147	12.78	9.44	11.86	0.1383	127.795897	93.22876328	52577	18.92742	13.088926
2009	148	16.67	10.56	14.99	0.526358333	156.1560378	164.3709811	52662	19.60082	14.1169635
2009	149	22.78	16.67	21.1	1.356208333	345.4430767	233.1701795	52743	21.19038	14.96284217
2009	150	20	12.78	18.01	8.33E-05	761.5117931	186.5482859	52821	20.15214	14.57022583
2009	151	21.67	10	18.46	0	917.7313413	548.1091345	52896	19.33216	13.83123
2009	152	21.11	5	16.68	0.002316667	748.3944377	552.2417158	52969	18.56314	13.007849
2009	153	22.78	8.33	18.81	0.405066667	391.0654887	481.3943661	53038	18.91902	14.18153983
2009	154	23.89	15.56	21.6	1.566466667	162.8550763	326.997777	53103	20.656	14.19061167
2009	155	16.67	11.11	15.14	0.04065	320.1857322	55.18381962	53166	20.93656	13.7514935
2009	156	17.78	11.11	15.94	0.610183333	142.9780977	220.0746531	53225	21.139	13.4810795
2009	157	14.44	12.22	13.83	0.05565	457.0342452	74.54518068	53281	20.7421	14.44826383
2009	158	24.44	12.78	21.24	0	781.4197036	561.6832771	53334	19.96062	14.92855367
2009	159	27.22	15.56	24.01	1.172641667	665.3370689	535.7187075	53383	19.90308	15.89600883
2009	160	27.78	18.33	25.18	0.816958333	607.6812536	394.6855014	53429	21.51154	16.85053367
2009	161	28.33	16.67	25.12	0.053866667	534.0691892	376.6617558	53471	20.4887	16.66832267
2009	162	25	17.78	23.01	0.770391667	246.4732931	325.7521362	53510	20.55268	16.451369
2009	163	22.22	17.78	21	0.602158333	384.3381698	159.5538891	53546	21.40514	16.75228583
2009	164	23.89	16.11	21.75	0	696.7668218	269.3466874	53577	20.76198	16.6149545
2009	165	25	11.11	21.18	0.000166667	901.0650168	368.8677887	53606	19.8601	16.06725033
2009	166	25	12.78	21.64	0	948.8202684	566.2213887	53630	18.97446	15.84487767
2009	167	26.67	15	23.46	0	568.0934847	557.6528485	53651	18.2151	15.6101455
2009	168	22.22	15.56	20.39	1.91045	280.2558962	190.1469882	53669	19.90658	15.20846217
2009	169	16.67	13.89	15.9	0.416083333	268.2314446	137.9804681	53682	21.4918	15.40802
2009	170	21.67	15.56	19.99	0	551.8582417	218.5431163	53693	20.70136	15.9651195
2009	171	24.44	16.11	22.15	3.7643	322.3490787	344.0566872	53699	21.95548	16.43381717
2009	172	24.44	16.67	22.31	0.360316667	646.0100973	147.6097267	53702	21.50692	16.46886633
2009	173	23.89	15.56	21.6	1.67E-05	828.393316	280.7304972	53701	20.5706	16.77141617
2009	174	27.22	15.56	24.01	0	1047.297317	407.7620354	53696	19.6256	16.93585567
2009	175	27.22	14.44	23.71	0.0001	1122.611537	564.58621	53688	18.57938	17.11683667
2009	176	29.44	16.11	25.78	0	996.8158224	585.1789557	53676	17.41892	17.48824283
2009	177	30.56	18.89	27.35	0.1578	778.0274218	512.7244819	53661	16.45208	18.13777007
2009	178	26.67	15.56	23.61	0	921.1815165	409.3980851	53641	15.51674	17.94212855
2009	179	26.67	15.56	23.61	0.036816667	359.5379371	499.1871548	53619	14.62816	17.1483993
2009	180	21.11	13.89	19.12	0.392533333	571.5133907	117.4544088	53592	15.69916	17.21030395
2009	181	26.11	15.56	23.21	1.373766667	317.4763943	493.6038863	53562	17.48108	17.1784577
2009	182	22.78	13.89	20.33	0.00705	384.479247	312.5860997	53529	19.41714	16.95295642
2009	183	24.44	15	21.85	1.606516667	292.929466	340.8269238	53491	20.44992	17.06240763
2009	184	22.22	15.56	20.39	0.00525	508.6422429	244.6762214	53451	20.34744	16.98831817
2009	185	22.22	15	20.24	0	843.0129499	315.8919581	53407	19.44836	17.03938227
2009	186	23.33	11.11	19.97	0	777.5442578	474.419604	53359	18.95108	16.51611964
2009	187	23.89	12.22	20.68	0	853.5576772	552.7291837	53308	18.32948	16.29999873
2009	188	27.22	13.89	23.56	0	1176.476636	527.83652	53254	17.95652	16.54125389
2009	189	26.11	11.67	22.14	0	808.670287	516.9902631	53196	17.70788	16.05570914
2009	190	22.78	12.78	20.03	0	719.4379253	408.4791505	53135	17.33492	16.11414468
2009	191	26.11	13.89	22.75	0	704.8211986	454.2059902	53071	16.96196	16.37592263
2009	192	26.11	16.67	23.51	1.671016667	447.6598914	415.6082381	53004	16.46468	16.95263985
2009	193	25.56	17.22	23.26	0.033116667	901.6685182	262.3239819	52933	19.87055072	17.46677048
2009	194	25	14.44	22.1	0.000566667	1029.287788	552.6378732	52860	21.25398368	16.76409421
2009	195	24.44	11.11	20.78	0.017533333	973.6450359	552.9410802	52783	19.67226032	15.99129279
2009	196	25	11.11	21.18	0.000616667	832.3341124	589.6628254	52703	22.19844272	15.95154951
2009	197	27.78	13.33	23.81	0.390866667	986.6266601	542.0143721	52620	21.0191432	17.65805117
2009	198	30	18.33	26.79	0.475958333	450.5324709	472.2900611	52535	19.3880648	17.11260424
2009	199	22.78	13.89	20.33	0.791058333	540.2532892	157.8793979	52446	18.07101872	16.79556086
2009	200	20.56	13.33	18.57	0.0065	532.8747459	292.9380131	52355	16.84994768	16.46485735
2009	201	23.89	14.44	21.29	0	675.0930108	442.6133965	52261	15.76811504	16.49872351
2009	202	26.11	15.56	23.21	0.097	693.6484257	383.2556076	52164	15.22806896	17.23818584
2009	203	25	15.56	22.4	0.500133333	372.1661505	391.6583554	52065	14.42856704	17.30206311
2009	204	25	16.67	22.71	2.318016667	320.5875517	255.4392864	51963	13.62918944	18.10391324
2009	205	25.56	17.22	23.26	0.1648	532.685326	274.7583399	51858	15.89007296	18.24939646
2009	206	26.11	15	23.06	0.383116667	481.6771529	420.372022	51751	18.6974672	17.86443013
2009	207	27.78	16.67	24.72	0.291816667	476.1631711	386.3589809	51642	19.38508112	18.26046599
2009	208	26.11	18.33	23.97	0	732.9878967	326.547668	51530	21.10790768	18.38234737
2009	209	27.78	17.22	24.88	0	788.7211924	460.8221155	51417	20.1122288	18.44488622
2009	210	28.89	18.33	25.99	1.169833333	256.614042	472.5359691	51300	16.12672	18.33304527
2009	211	22.78	18.33	21.56	0.069583333	508.5388685	164.3424579	51182	17.35214	18.92111223
2009	212	27.78	19.44	25.49	1.46685	246.626154	366.9988719	51062	18.6547	19.01213427
2009	213	22.22	16.67	20.69	0.0032	528.009103	122.9791714	50939	19.05216	19.1675374
2009	214	27.22	17.22	24.47	0.120166667	503.28073	508.1987355	50815	18.16302	19.11019377
2009	215	25.56	14.44	22.5	0	667.5599216	273.254343	50688	17.46918	18.58394387
2009	216	25.56	15.56	22.81	0	624.4665166	509.2764944	50560	16.26798	18.43062433
2009	217	28.33	16.67	25.12	0	756.4169314	495.7171623	50430	15.22974	18.73414943
2009	218	26.11	12.78	22.44	0	846.0942866	321.9611556	50298	14.01972	17.7620063
2009	219	25	12.22	21.49	0	668.5008427	429.5375428	50164	12.94928	17.02655827
2009	220	24.44	13.89	21.54	0.027166667	634.6702583	422.4349773	50029	12.12132	17.3456921
2009	221	26.11	16.11	23.36	0.42765	442.6475989	407.0265802	49892	11.97376	18.521139
2009	222	29.44	20	26.85	0.216141667	806.3058002	245.7711502	49754	11.90152	19.79586393
2009	223	32.22	20	28.86	0.231791667	614.5217081	433.4097987	49614	11.66856	19.80562637
2009	224	27.78	18.33	25.18	1.749625	449.6914643	274.1841463	49472	11.39626	19.39451487
2009	225	26.67	16.67	23.92	0.089208333	530.6079843	277.4792201	49330	12.30808	19.1043639
2009	226	26.67	17.78	24.22	0	626.9497425	466.5630041	49186	12.22492	19.2003656
2009	227	28.89	17.78	25.83	0	794.0750932	471.8056379	49040	11.88304	19.6118005
2009	228	30.56	19.44	27.5	0	901.5865104	516.699711	48894	11.48684	19.70703327
2009	229	31.11	20	28.06	0	1105.731535	511.0916548	48746	10.86356672	20.00755901
2009	230	32.78	20.56	29.42	0.431825	611.56991	519.9884883	48597	15.20444816	20.2415764
2009	231	30.56	20.56	27.81	0.015741667	676.9374703	352.1423597	48446	12.8985608	20.98747883
2009	232	29.44	20	26.85	0	749.152435	334.0828714	48295	13.88926688	20.52965485
2009	233	29.44	20.56	27	0.485283333	492.655685	359.5957366	48143	12.81016928	20.68413435
2009	234	26.67	18.89	24.53	0.001233333	559.8637232	285.7769766	47990	11.49188	20.33386644
2009	235	26.67	17.78	24.22	0	846.3101499	300.0086025	47836	14.59988	19.90870181
2009	236	25.56	14.44	22.5	0	576.5525923	430.6970264	47681	15.81970784	18.71164586
2009	237	25.56	14.44	22.5	0	667.7699726	382.0700192	47525	14.88569168	18.49436192
2009	238	27.22	16.11	24.17	0	897.3468059	505.7216895	47368	13.92830336	18.65333005
2009	239	28.89	17.22	25.68	0.02615	534.4074612	459.7992495	47210	12.822104	18.88681579
2009	240	19.44	16.67	18.68	0.91275	219.3969411	127.8820285	47052	12.11348	18.41659058
2009	241	20	16.67	19.08	2.108033333	330.555097	72.25766709	46893	11.49188	18.69921189
2009	242	26.11	14.44	22.9	0	761.1388359	318.5740688	46734	10.9946	17.70273605
2009	243	22.22	11.11	19.17	0	540.8998917	476.6894659	46573	10.373	16.35215266
2009	244	18.89	7.78	15.83	3.33E-05	474.5543285	395.0114636	46413	8.0714	15.19571253
2009	245	20.56	8.33	17.19	0	529.277754	534.9325926	46251	7.95114	14.86966747
2009	246	23.33	10	19.67	0	586.9153305	516.7183935	46089	7.94764	14.9963573
2009	247	23.89	10.56	20.22	0	627.404906	508.7480025	45927	7.88688	15.44803263
2009	248	25	12.22	21.49	0	667.4029684	503.4083048	45764	7.74632	15.8886812
2009	249	25.56	12.78	22.04	0	723.5662468	470.3606058	45600	7.50342	15.99601293
2009	250	25	13.89	21.94	0.009341667	385.7817956	449.9890553	45437	7.35768	16.37611647
2009	251	20	17.22	19.24	0.003408333	409.4359562	148.9286479	45272	7.24358	16.6643653
2009	252	22.22	16.11	20.54	0.000916667	474.4212481	206.975552	45108	7.1166	16.72595863
2009	253	22.78	15	20.64	0.013333333	708.5729684	234.2821664	44943	6.93488	16.38360603
2009	254	20	12.78	18.01	2.071841667	218.3804631	436.0612195	44778	6.5902	15.04931047
2009	255	15	12.22	14.24	0.056508333	192.5441047	61.47260377	44613	6.93544	15.2955757
2009	256	19.44	13.89	17.92	0	587.8569736	105.7599766	44447	7.47416	16.03736277
2009	257	24.44	15	21.85	0	598.2023368	471.7023103	44281	7.74422	16.50685607
2009	258	23.89	13.89	21.14	0.00035	456.242422	324.4683815	44115	7.7522	16.27195733
2009	259	24.44	11.67	20.93	0	743.9274831	293.2977953	43949	7.67324	15.8984923
2009	260	19.44	11.67	17.31	0.010241667	315.1932069	382.062166	43783	7.4869	15.31886033
2009	261	16.11	13.89	15.5	0.014991667	481.6589997	78.55613486	43617	7.45638	15.6359254
2009	262	23.33	10	19.67	0	668.9773209	424.6025037	43450	7.1901	14.8548639
2009	263	20	5.56	16.03	0	394.0091204	504.2357964	43284	6.83562	14.08279767
2009	264	23.33	6.11	18.6	0	470.319669	412.6901409	43117	6.78158	14.91440467
2009	265	23.89	14.44	21.29	0.077166667	413.0755619	418.755032	42951	6.76814	15.960007
2009	266	23.33	18.33	21.96	0.454383333	323.0048201	144.2244733	42784	6.86572	17.07598717
2009	267	26.11	17.78	23.82	0	550.8505766	283.3392152	42618	6.99368	17.53127967
2009	268	22.78	13.33	20.18	0	766.0699265	206.1362957	42452	6.82162	16.59682817
2009	269	20	12.22	17.86	2.91225	393.1857879	415.403895	42286	6.46938	14.78196333
2009	270	14.44	11.67	13.68	1.75345	97.59836475	65.27915814	42120	6.60168	14.42063983
2009	271	16.67	12.22	15.44	0.7834	392.4936873	141.427329	41954	6.97156	13.91818233
2009	272	20	11.11	17.56	0.0036	614.0463142	253.3884983	41788	7.36818	13.34449133
2009	273	13.89	10.56	12.97	0.002233333	474.1497003	78.41209338	41623	7.71034	13.06155933
2009	274	13.33	6.67	11.5	0	425.1628331	222.6588506	41458	7.7781	11.99129267
2009	275	12.78	3.89	10.33	0.634591667	132.6601074	238.7033627	41293	7.74548	11.18761613
2009	276	15	5	12.25	0.372508333	279.36355	211.4318454	41129	8.1344	12.5127135
2009	277	18.89	7.78	15.83	0	395.4028318	356.4960875	40964	8.50036	12.11972083
2009	278	15.56	7.78	13.42	0	431.4231722	211.7780844	40801	8.74172	11.86395983
2009	279	15.56	4.44	12.5	0	370.5361453	293.2540067	40637	8.85498	11.29502767
2009	280	17.78	5	14.26	0.267583333	564.702324	366.6798058	40474	9.1774	12.1496414
2009	281	13.33	7.78	11.81	0	466.8655743	211.8499094	40312	9.38516	11.98804853
2009	282	18.33	8.33	15.58	1.115225	171.0742548	338.2841523	40150	9.7255	12.58137183
2009	283	17.78	11.67	16.1	0.475775	390.5188521	96.19678558	39989	10.94658	12.90519267
2009	284	14.44	5	11.85	0	373.7990604	204.2244674	39828	11.30092	10.98520655
2009	285	12.78	3.89	10.33	0	340.3996733	328.4332084	39667	11.49118	9.909569983
2009	286	9.44	3.89	7.92	0.005983333	283.6007623	131.7027135	39508	11.73072	10.10350045
2009	287	13.33	0	9.67	3.33E-05	252.7312396	151.2998535	39349	11.78812	8.940656483
2009	288	7.22	0.56	5.39	2.513708333	65.32204503	140.2523273	39191	12.92982	7.809564817
2009	289	3.89	-0.56	2.67	1.276416667	39.74306619	40.5377269	39033	17.38532	6.53886945
2009	290	1.67	0	1.21	0.679866667	44.46893486	102.3140526	38876	18.50812	6.80197175
2009	291	3.89	0	2.82	0.185891667	193.5736985	84.70653866	38720	18.49328	7.369737967
2009	292	10	-1.11	6.94	0	279.1027575	249.870226	38565	18.045	7.149981483
2009	293	12.78	0	9.26	0	396.3782907	391.5737813	38411	17.9547	8.152777783
2009	294	19.44	6.67	15.93	3.33E-05	513.2498888	332.2389909	38258	17.89814	9.0647486
2009	295	21.11	7.78	17.44	0	743.1655047	271.7954755	38106	17.89114	9.892166667
2009	296	21.67	8.33	18	0.837983333	421.5513789	306.051281	37955	18.30092	10.68388063
2009	297	17.22	11.11	15.54	7.42895	347.2655167	113.6295597	37804	20.50984	11.86467267
2009	298	18.33	6.67	15.12	0	724.291248	132.3849311	37655	19.5066	11.15617417
2009	299	15	2.78	11.64	0	419.3229011	355.4718294	37507	19.01828	10.02796438
2009	300	15.56	3.33	12.19	0.064833333	201.9614038	332.7975208	37361	18.84314	9.9535611
2009	301	13.33	7.78	11.81	1.282408333	131.5099396	132.5736661	37215	20.39462	10.89745883
2009	302	15	11.11	13.93	4.17E-05	246.9586021	80.55890521	37071	19.81614	11.37666567
2009	303	13.33	10	12.42	0.013566667	246.492101	76.48735869	36928	19.5045	11.32808183
2009	304	14.44	11.11	13.53	0.110216667	391.4013184	57.10508958	36787	19.368	11.50586767
2009	305	16.67	5.56	13.61	0	645.7503674	56.66360026	36647	19.22058	10.54589233
2009	306	11.67	-0.56	8.31	3.33E-05	308.9746219	290.2174434	36509	18.8948	9.026255917
2009	307	12.78	0	9.26	0.032983333	442.227101	331.0563372	36372	18.7149	8.666372033
2009	308	12.22	-1.11	8.56	0.001616667	384.6979668	267.7663567	36237	18.42076	7.779666617
2009	309	7.78	-1.11	5.33	0.077083333	213.3716827	188.0754613	36103	18.28986	7.355397917
2009	310	7.22	0.56	5.39	0	391.6988879	110.2075271	35971	18.20124	6.804435883
2009	311	7.78	-2.22	5.03	0	335.0895566	325.1839367	35841	18.02358	6.170619217
2009	312	13.33	-2.22	9.06	0	394.3304765	296.1657935	35713	18.1437	7.446088667
2009	313	21.11	5.56	16.83	0	457.0171514	305.0861988	35586	18.1255	8.1939956
2009	314	19.44	5.56	15.62	0	543.8915295	183.5394556	35462	18.10058	8.974313883
2009	315	14.44	5.56	12	0.015083333	742.7692553	134.2706451	35339	17.98788	8.74380695
2009	316	10.56	2.22	8.26	0	635.896958	167.3024559	35219	17.81806	8.0766905
2009	317	10	2.78	8.01	6.67E-05	609.4263692	180.2243277	35100	17.89464	8.592113667
2009	318	15.56	5	12.65	0.003733333	362.9603322	262.088061	34984	18.18738	9.749885183
2009	319	14.44	4.44	11.69	1.67E-05	298.1035457	128.8248392	34870	18.11192	9.837582867
2009	320	19.44	5.56	15.62	0	734.7430277	266.919515	34759	18.06712	9.799887967
2009	321	12.78	5.56	10.79	0	794.3924701	279.0205687	34649	17.87686	9.10501165
2009	322	8.89	2.78	7.21	0	365.799792	97.36148591	34542	17.65832	8.145310883
2009	323	10	4.44	8.47	1.212533333	110.5722992	167.3496508	34438	18.80688	8.815306467
2009	324	11.11	6.11	9.74	0.043433333	439.1936874	52.90658349	34336	20.27254	8.90845925
2009	325	10	5	8.62	0	315.3315028	184.2346544	34237	19.87424	8.56904445
2009	326	10.56	5	9.03	0	191.8939447	112.1602801	34140	19.53474	7.691278233
2009	327	8.33	3.89	7.11	0.046891667	215.7106532	77.59897897	34046	19.38872	7.662626617
2009	328	9.44	4.44	8.07	0.679641667	79.92162581	89.31061399	33954	20.61554	8.287681933
2009	329	9.44	6.67	8.68	0.029666667	100.914755	73.49639797	33866	20.33554	8.597900933
2009	330	10.56	2.22	8.26	0.4603	98.29357923	89.14605133	33780	20.26456	8.127690283
2009	331	10	2.22	7.86	0.246758333	323.7376413	135.0478038	33697	20.61414	7.186889117
2009	332	5.56	1.67	4.49	0.036091667	219.0044832	97.07390796	33618	20.15452	6.3154757
2009	333	5	0	3.62	0	273.8465278	93.92645099	33541	19.90378	6.061325467
2009	334	16.11	0.56	11.83	0.126091667	443.3355542	244.0706692	33467	19.9294	7.146477767
2009	335	11.11	-0.56	7.9	0.000958333	346.3394737	60.97066011	33397	19.6452	5.903040033
2009	336	6.11	-2.22	3.82	0.656725	74.259888	114.8741856	33329	19.78576	5.09524305
2009	337	12.78	-1.67	8.81	0.898241667	269.6985342	65.98330239	33265	20.90464	6.534470833
2009	338	11.67	2.78	9.22	0.00245	404.3970804	55.96793984	33204	20.30124	6.068719917
2009	339	5	-1.11	3.32	0.464875	103.075495	135.4292551	33146	19.9574	4.86336525
2009	340	0.56	-3.89	-0.67	0.001691667	169.5391919	37.59084603	33092	20.23096	4.09177895
2009	341	0.56	-5.56	-1.12	0.002908333	114.5965167	272.6776057	33041	20.09432	3.546908383
2009	342	1.11	-5.56	-0.72	0.000591667	191.6584817	85.45399374	32993	19.9791	3.82000145
2009	343	3.33	-1.11	2.11	3.267383333	93.08141013	209.4953781	32949	20.26484	3.383344317
2009	344	6.11	-3.33	3.51	0.002883333	362.2057389	148.5790103	32909	20.39658	2.942909783
2009	345	-2.22	-10	-4.36	1.67E-05	241.5653984	160.0299361	32872	19.9616	2.353698067
2009	346	-2.78	-9.44	-4.61	0	243.8525446	196.0180142	32838	19.75832	1.979540217
2009	347	2.22	-5.56	0.08	1.664683333	137.7923547	264.3302195	32808	20.0421	2.006717217
2009	348	5	-0.56	3.47	0.000416667	126.5436996	49.05054771	32782	20.60938	2.538182533
2009	349	7.78	2.78	6.4	0.1445	169.7839001	125.89785	32759	20.58236	2.910699933
2009	350	7.78	-3.89	4.57	0.01185	351.5186021	50.70731814	32740	20.36984	2.349318667
2009	351	-1.11	-7.22	-2.79	0.001183333	194.6349855	224.5416285	32724	19.9868	1.7363368
2009	352	-1.67	-6.67	-3.04	0	190.6060358	203.5037996	32712	19.82286	1.400756217
2009	353	0	-6.67	-1.83	0.758841667	69.38089985	171.0439336	32704	19.68258	1.064801183
2009	354	-4.44	-7.22	-5.21	0.020958333	141.3702265	59.51822692	32699	19.5871	1.144172367
2009	355	0	-6.11	-1.68	0.001766667	163.3830332	240.2321442	32698	19.55154	1.121802233
2009	356	0.56	-3.33	-0.51	0.00515	181.8306143	192.2313794	32701	19.64254	1.189809383
2009	357	1.11	-9.44	-1.79	0	198.3102232	110.0372964	32707	19.44374	0.652684333
2009	358	-1.67	-9.44	-3.81	0	130.5850733	265.4384244	32717	19.55084	0.470407783
2009	359	0	-5.56	-1.53	0.436566667	66.77951248	260.7809063	32731	19.90042	0.812317743
2009	360	6.11	-1.67	3.97	2.204083333	54.83178188	41.28898646	32749	20.96288	1.470252667
2009	361	6.67	-2.78	4.07	0.003083333	160.2968077	48.71245244	32770	20.58068	2.01228632
2009	362	5	-2.78	2.86	0.011341667	256.0515326	188.7156566	32794	20.1996	1.5599052
2009	363	-2.22	-7.78	-3.75	0.049575	202.1849359	126.391619	32822	19.84778	0.803181533
2009	364	-4.44	-9.44	-5.82	0	146.7228171	218.6143738	32854	19.3834	0.490637362
2009	365	-1.67	-9.44	-3.81	0.426108333	66.96507975	168.0734768	32889	19.25236	0.527598248
2010	1	0	-3.89	-1.07	0.021008333	111.5198336	81.71807618	32928	19.45046	0.92637268
2010	2	2.78	-7.78	-0.12	0.079366667	216.0043044	106.0406765	32971	19.3841	0.594004628
2010	3	-6.67	-11.11	-7.89	0.004641667	118.5879497	171.884121	33017	19.06084	0.289720833
2010	4	-6.11	-10.56	-7.33	0.005375	120.014054	79.6672527	33066	18.66926	0.18940162
2010	5	-3.89	-7.78	-4.96	0.004258333	132.4565973	103.2753586	33119	18.42216	0.155303472
2010	6	-2.78	-7.78	-4.15	0.024658333	121.4258647	83.42089834	33175	18.2214	0.176428935
2010	7	-1.11	-3.89	-1.87	0.000208333	165.2800878	64.10930454	33234	18.20194	0.16021875
2010	8	-1.67	-6.11	-2.89	0.136158333	125.2094245	81.674895	33296	18.23414	0.059362269
2010	9	-4.44	-8.89	-5.67	0.005166667	176.6695034	201.5891839	33362	18.35468	-0.088073148
2010	10	-2.78	-13.33	-5.68	0	146.0890171	281.3135721	33431	18.40858	-0.21884375
2010	11	-4.44	-13.33	-6.89	0.016116667	127.458138	251.7358788	33503	18.31758	-0.246042823
2010	12	-2.22	-9.44	-4.21	0.00085	147.7534395	150.6942653	33579	18.06586	-0.301344443
2010	13	-2.22	-6.67	-3.44	0	169.3752225	198.9922776	33657	18.04276	-0.251347917
2010	14	0	-7.78	-2.14	0	186.0429463	169.7915923	33738	18.11458	-0.289144677
2010	15	7.22	-7.22	3.25	0	245.8080478	276.6938902	33822	18.4804	-0.038535185
2010	16	5.56	2.22	4.64	0	241.7271257	57.75381471	33909	19.23094	0.17089074
2010	17	9.44	-1.67	6.39	1.630925	67.46757635	164.5765147	33999	20.36354	0.242331018
2010	18	3.89	-1.11	2.51	0.043708333	129.5067224	25.51302764	34092	20.75344	0.818392362
2010	19	6.11	2.22	5.04	0.014733333	179.3813113	196.2637845	34187	20.50592	1.225505317
2010	20	4.44	-2.22	2.61	0	253.3243194	43.68275177	34285	20.26932	1.257709493
2010	21	1.67	-7.22	-0.78	0	178.2963888	158.5509533	34386	20.0169	0.968598835
2010	22	3.33	-6.67	0.58	0.065466667	242.7984897	284.1505759	34489	20.01312	1.256721302
2010	23	2.78	-4.44	0.79	0	267.359495	100.2280355	34595	19.92744	1.18495602
2010	24	5	-5	2.25	1.057183333	142.2054918	287.3162792	34703	20.1324	1.45863658
2010	25	13.33	1.67	10.12	4.141916667	284.4608514	66.10911308	34814	21.60716	3.596964583
2010	26	11.67	-1.67	8	0.027716667	387.2378933	75.29520127	34926	20.75624	2.875362967
2010	27	0.56	-3.89	-0.67	0.003583333	234.7107231	170.686155	35042	20.37992	1.93263495
2010	28	0.56	-3.89	-0.67	0.068183333	202.1964405	221.3244953	35159	20.13982	1.267060183
2010	29	1.67	-13.33	-2.46	0	232.2756603	186.8591463	35278	19.4982	0.498521067
2010	30	-7.22	-13.33	-8.9	0	153.0169118	267.3346739	35400	18.92938	0.007672917
2010	31	-8.33	-13.89	-9.86	0	155.742414	137.3188575	35523	18.3404	-0.363520138
2010	32	-2.22	-13.33	-5.28	0	191.5766279	327.7089824	35649	18.1339	-0.440102547
2010	33	-1.11	-7.78	-2.94	0.048866667	149.8203472	249.8372121	35776	18.07496	-0.294845138
2010	34	1.67	-6.67	-0.62	0.1417	138.2543235	164.9748847	35905	18.30232	-0.106673618
2010	35	1.11	-4.44	-0.42	0	282.8756916	109.8739339	36036	18.68886	-0.175012268
2010	36	3.33	-4.44	1.19	0.297025	169.1546818	325.8434843	36169	19.04698	-0.127424768
2010	37	1.11	-5.56	-0.72	1.478475	179.3266347	66.55165914	36303	19.2196	-0.240351852
2010	38	-2.22	-15.56	-5.89	1.67E-05	140.014984	198.8502252	36440	19.25068	-0.277269675
2010	39	-2.22	-14.44	-5.58	1.67E-05	135.2405321	358.3636885	36577	19.25866	-0.224977547
2010	40	-1.67	-10.56	-4.11	0.08035	77.78833028	389.6370546	36716	19.2231	-0.084850695
2010	41	-2.22	-8.89	-4.06	0.891358333	61.59693208	128.0813124	36857	19.23976	-0.081497685
2010	42	-2.78	-9.44	-4.61	0.002291667	139.1377205	101.2412718	36999	19.26944	-0.037870371
2010	43	-1.11	-5.56	-2.33	3.33E-05	209.4065999	222.3804718	37143	19.36226	0.019525
2010	44	1.11	-7.78	-1.33	0.000233333	211.6857332	329.7894437	37287	19.45634	0.025363194
2010	45	-3.33	-7.78	-4.56	0.014183333	137.1988201	187.1868257	37433	19.42764	0.06123426
2010	46	-1.11	-9.44	-3.4	0.297308333	119.729269	122.6613656	37581	19.33734	0.04281713
2010	47	0.56	-9.44	-2.19	0.084291667	165.7281876	215.4810558	37729	19.35414	0.057592129
2010	48	-1.11	-6.67	-2.64	0.011191667	161.4629869	241.765976	37879	19.38438	0.150322685
2010	49	0.56	-5	-0.97	0.007591667	215.9663021	187.4344081	38029	19.46586	0.302247916
2010	50	2.78	0	2.01	0.000183333	320.3520665	263.3757766	38181	20.09964	0.355609722
2010	51	4.44	-3.89	2.15	0	334.1611361	293.3711976	38334	20.8086	0.19868125
2010	52	5	-3.89	2.56	0	409.1621616	225.9036672	38487	20.90058	0.253071296
2010	53	7.22	-3.33	4.32	0.125525	253.520992	396.9326552	38642	20.99144	0.242777314
2010	54	4.44	-2.22	2.61	0.041291667	75.61425035	134.1661669	38798	20.87594	0.372121296
2010	55	3.33	-0.56	2.26	0	263.6064599	102.0625171	38954	20.98864	0.512010416
2010	56	2.78	-2.22	1.4	0.043733333	207.1322165	203.5185167	39111	20.92298	0.37173588
2010	57	0.56	-6.67	-1.43	0.315566667	120.0686571	217.2932823	39269	20.66692	0.236916203
2010	58	-2.22	-5.56	-3.14	0.068416667	119.7091058	129.2301013	39428	20.54176	0.348967823
2010	59	1.67	-3.89	0.14	0.043183333	187.3356345	265.6801207	39587	20.68064	0.483394675
2010	60	4.44	-1.11	2.92	0.008058333	233.5345711	245.5782109	39747	21.0109	0.608025927
2010	61	3.89	0	2.82	0.000425	243.5892452	161.4403939	39907	21.00166	0.591316898
2010	62	3.33	-0.56	2.26	0.048066667	207.0671659	177.9444746	40068	21.04954	0.722790047
2010	63	4.44	-2.78	2.46	0	394.4714723	113.0912099	40230	21.09308	0.793963193
2010	64	5	-2.78	2.86	0	426.5389723	429.7154686	40392	21.05192	1.002290745
2010	65	7.22	-5	3.86	0	483.723969	410.9399928	40555	20.93026	1.166994902
2010	66	9.44	-4.44	5.62	0	602.7230652	457.4310671	40718	20.7463	1.905190038
2010	67	10.56	-1.11	7.35	0	646.133554	451.1267187	40882	20.54666	2.701254867
2010	68	11.67	-0.56	8.31	0	594.5900011	451.9356456	41046	20.35164	3.317930083
2010	69	15.56	1.11	11.58	0.000808333	679.1629471	445.3511553	41210	20.18462	4.066266433
2010	70	15.56	2.22	11.89	0.002408333	541.3981871	256.1135277	41375	20.18546	5.692212967
2010	71	18.89	3.89	14.76	0.818983333	178.3883097	413.1944879	41540	20.60728	6.418776167
2010	72	10	5	8.62	2.895616667	123.9284277	62.98845602	41705	21.70236	5.990235883
2010	73	8.33	5	7.42	0.880633333	103.5372274	54.11689344	41870	21.53436	5.646140983
2010	74	6.67	4.44	6.06	0.045566667	196.7819722	64.52996787	42036	21.15034	5.535346283
2010	75	6.67	4.44	6.06	1.67E-05	528.4148953	76.74920333	42202	21.00236	6.312006717
2010	76	15.56	-0.56	11.13	0	786.6147442	469.4445362	42368	20.76702	6.221790283
2010	77	17.78	0	12.89	0	884.5385146	484.5672735	42534	20.5209	6.329203717
2010	78	18.89	1.67	14.15	0	912.8883794	462.837063	42701	20.35584	6.91437825
2010	79	20	6.11	16.18	0	1037.163672	460.265106	42867	20.19386	7.655270133
2010	80	21.11	6.67	17.14	0	1167.51575	427.7486563	43033	20.08284	8.846329867
2010	81	22.78	7.78	18.65	0.3143	561.2853258	411.1624439	43200	19.97182	9.5929088
2010	82	18.33	7.78	15.43	0.246025	335.6198265	122.6908478	43366	20.12736	8.540825
2010	83	8.33	2.78	6.81	0.000108333	570.5693522	48.06248056	43533	20.15662	7.780382633
2010	84	15.56	2.78	12.04	0.200816667	517.5675446	497.080918	43699	20.06688	7.632457867
2010	85	18.33	-1.11	12.99	1.101366667	733.2761299	228.6958786	43865	21.33612	7.175300467
2010	86	5	-5.56	2.1	0	443.5347271	461.7601285	44032	20.77108	5.66445625
2010	87	8.89	-5.56	4.92	2.144625	172.9833566	465.0649976	44198	20.89204	5.1613338
2010	88	7.22	2.78	6	0.182625	186.4774684	148.7396134	44363	21.35446	6.515086117
2010	89	14.44	1.67	10.93	0.001841667	690.6611826	222.8917632	44529	20.93684	6.37096065
2010	90	10	1.67	7.71	0.000325	707.0691914	263.7826159	44695	20.7757	7.4080456
2010	91	20	5	15.88	0	1108.768058	506.0515697	44860	20.61106	8.61501945
2010	92	26.67	6.67	21.17	0	1343.450028	502.8346597	45025	20.44684	10.08159885
2010	93	28.33	10	23.29	0	1371.97667	457.8408199	45190	20.26498	11.12394168
2010	94	25.56	12.22	21.89	0	1784.308152	432.3200364	45354	20.03342	11.26383283
2010	95	21.11	7.22	17.29	0.001283333	1113.620212	461.8967498	45518	19.718	11.094076
2010	96	26.67	8.33	21.63	0.1036	1268.346143	403.321944	45681	19.7054	12.56240683
2010	97	30	15.56	26.03	0	2277.840818	442.9441976	45845	19.57604	13.071631
2010	98	29.44	12.22	24.71	0.188058333	1355.85076	376.8454231	46007	19.32222	12.91867083
2010	99	28.89	4.44	22.17	0.03315	1122.008326	370.2253782	46169	18.9151	10.634214
2010	100	7.22	3.89	6.31	0.008375	562.5312808	178.2767069	46331	18.6876	9.70663025
2010	101	16.67	5.56	13.61	0	923.1641868	545.0388654	46492	18.61284	10.01521435
2010	102	21.11	2.78	16.07	0	1318.838169	435.0994212	46653	18.52212	10.36474623
2010	103	18.89	4.44	14.92	0.001133333	845.7859205	515.1435955	46813	18.24114	9.720175783
2010	104	13.33	0	9.67	0	506.9135009	220.4580995	46972	18.01616	9.382454883
2010	105	18.33	2.78	14.06	0	837.0168582	524.0639794	47131	17.97528	10.10790603
2010	106	25.56	7.78	20.67	0.412966667	874.0810633	459.777806	47289	17.98536	11.46911333
2010	107	25.56	6.11	20.21	0.19925	825.0047669	316.6303101	47446	18.10366	10.04997733
2010	108	7.22	1.67	5.69	0.023616667	312.1296568	169.8893798	47602	17.90206	8.635825383
2010	109	9.44	1.67	7.31	0	517.9129054	199.5331044	47758	17.92544	9.116297917
2010	110	17.22	2.22	13.1	0	745.8473127	556.3498962	47912	17.87812	9.659733783
2010	111	18.33	5	14.67	0.06255	608.2405161	481.528938	48066	17.72692	10.02811573
2010	112	20	4.44	15.72	0.056466667	751.3825465	395.2102715	48219	17.56186	10.1299379
2010	113	20	3.33	15.42	0	1116.214058	384.5707901	48370	17.38994	10.42650595
2010	114	19.44	3.89	15.17	0.070741667	757.695633	563.8635724	48521	17.05184	9.822957
2010	115	16.67	6.11	13.76	1.24475	125.4044897	259.6226956	48671	17.33562	9.73835595
2010	116	11.67	7.78	10.6	1.029241667	100.9510084	107.3606927	48819	19.6879	9.851438883
2010	117	12.22	5.56	10.39	0.198733333	599.0647484	107.8124871	48966	20.90366	9.65232455
2010	118	11.11	1.67	8.51	0	629.9726654	455.2490342	49112	20.36984	8.843117583
2010	119	12.78	2.78	10.03	0	801.9290074	399.4500538	49257	20.10216	9.58786875
2010	120	19.44	6.67	15.93	0	905.2578058	547.0387195	49401	19.83658	11.13152448
2010	121	27.78	10	22.89	0	1358.744456	521.7890037	49543	19.47048	12.79629167
2010	122	30.56	15.56	26.43	0.23245	594.7040993	451.7932246	49683	19.01884	13.8604185
2010	123	23.89	17.78	22.21	1.59415	641.6816102	146.7228204	49823	21.27508	14.67517317
2010	124	25	12.78	21.64	0.37015	871.2859522	270.9380518	49960	20.91584	13.82927083
2010	125	22.22	8.89	18.56	0	858.2302341	443.7574497	50096	20.45258	13.44962917
2010	126	26.67	11.11	22.39	0.27015	1221.65997	570.7940836	50231	20.26708	13.72862267
2010	127	21.11	6.11	16.99	0	743.1969638	561.6209897	50363	19.79752	12.830563
2010	128	20.56	8.33	17.19	0.721991667	641.877035	448.2928029	50495	20.5139	12.707844
2010	129	16.11	2.78	12.44	0.037625	632.339722	345.2549982	50624	20.22942	10.5355912
2010	130	8.33	2.22	6.65	0	538.1930523	222.6988503	50751	19.73648	9.9008708
2010	131	15	1.67	11.33	1.692641667	284.1894484	604.4633149	50877	20.17202	8.792662983
2010	132	9.44	3.33	7.76	1.605108333	95.03821326	85.06468695	51000	21.56964	9.183681483
2010	133	16.11	6.67	13.51	0.000833333	325.1761622	124.8047088	51122	20.98094	9.86635185
2010	134	14.44	7.78	12.61	0.162083333	322.4562471	205.0064739	51241	20.78536	11.44850783
2010	135	27.22	11.11	22.79	0.132266667	1337.088583	334.1764299	51358	20.60966	12.31841717
2010	136	21.11	10.56	18.21	0.002566667	900.2163436	520.5132664	51473	19.92422	12.3638995
2010	137	19.44	8.89	16.54	0.335833333	439.1544302	549.3395966	51586	19.3869	11.7624615
2010	138	15.56	8.33	13.57	0.513241667	179.6434306	139.6399277	51697	20.5776	11.04528517
2010	139	11.67	8.33	10.75	0.000191667	250.5843739	92.89235016	51805	20.66986	11.14847183
2010	140	17.78	10	15.64	0	659.6935837	255.0064353	51910	20.24118	12.4991945
2010	141	27.22	13.33	23.4	0	1003.374627	553.7747755	52014	19.51542	13.42532817
2010	142	27.78	15.56	24.42	0.303733333	781.8861175	413.3679243	52114	18.9151	13.93557183
2010	143	22.22	15	20.24	1.86885	266.716222	302.1756907	52212	22.13048	14.43563183
2010	144	22.22	13.89	19.93	0.00325	399.917488	257.4301918	52308	21.3672	14.68767917
2010	145	23.33	15	21.04	0.00005	644.1077855	289.0385626	52400	20.73776	15.460898
2010	146	26.67	16.11	23.76	0	895.8815694	442.8245048	52490	19.93864	16.12501333
2010	147	30	17.78	26.64	3.33E-05	1313.359499	552.1242222	52577	19.0019	17.06771017
2010	148	30.56	18.89	27.35	0.036416667	664.1662989	483.238915	52662	17.95456	16.95996767
2010	149	26.11	17.78	23.82	0.000433333	684.3608582	291.9525277	52743	17.21032	16.9942495
2010	150	26.11	13.33	22.6	0	956.8020012	357.3990381	52821	16.11734	16.84656517
2010	151	30	16.11	26.18	0.123666667	789.0704057	573.8025882	52896	14.98166	17.062201
2010	152	30.56	17.78	27.04	0.306483333	503.5565497	401.6937855	52969	14.29468	17.26933533
2010	153	26.11	14.44	22.9	0	795.9966503	258.7485972	53038	13.66944	17.1632365
2010	154	28.33	16.11	24.97	0.000383333	918.3023758	533.2181113	53103	12.94732	17.65288233
2010	155	27.78	18.89	25.33	0.001325	670.8221589	379.9798806	53166	12.24466	17.8154805
2010	156	28.33	18.89	25.74	0.226383333	534.0558894	357.5638508	53225	11.78574	18.02828667
2010	157	27.78	18.89	25.33	0.106141667	791.4485343	296.8741094	53281	11.39136	17.88666383
2010	158	25.56	12.78	22.04	0.0003	1096.404058	346.7124756	53334	10.67316	16.45915267
2010	159	21.11	10	18.06	0	920.4562131	413.6223867	53383	9.97344	15.402011
2010	160	22.22	11.67	19.32	3.927258333	255.7260075	591.149961	53429	14.08664	14.35362217
2010	161	17.22	12.22	15.85	0.003291667	513.1863292	72.95840442	53471	16.13512	15.3636005
2010	162	25.56	12.78	22.04	0	685.5874432	491.5957764	53510	14.615	15.7367575
2010	163	25.56	13.89	22.35	0.019616667	570.430018	472.4736643	53546	13.79908	17.05977
2010	164	31.11	19.44	27.9	0.528716667	730.595471	477.3496769	53577	13.42962	18.25282
2010	165	28.33	16.67	25.12	0.008216667	625.1153143	300.5305503	53606	13.09978	17.960694
2010	166	25	18.33	23.17	0.003133333	529.8318543	220.56974	53630	12.69014	17.5981745
2010	167	23.33	17.78	21.81	0.119383333	485.7824635	258.9768673	53651	12.49344	17.85777867
2010	168	28.33	17.22	25.28	0	1173.624179	433.2786049	53669	12.09024	17.73842883
2010	169	23.33	11.67	20.12	0	676.6384707	441.7947339	53682	11.31128	16.98668783
2010	170	27.22	13.89	23.56	0	778.92801	584.6085602	53693	10.79636	17.60195883
2010	171	31.11	17.78	27.44	0.041833333	1104.615981	507.7140556	53699	10.39456	18.483505
2010	172	28.89	16.11	25.38	0	1056.244733	422.426386	53702	9.8123	18.469874
2010	173	29.44	18.89	26.54	0.345633333	654.9866769	531.8649394	53701	9.43976	18.414363
2010	174	27.78	20.56	25.79	0.011108333	875.979023	294.2680996	53696	9.3447	19.31296767
2010	175	31.67	20.56	28.61	0.035641667	1198.900125	502.6540941	53688	8.99568	19.47840967
2010	176	28.33	16.67	25.12	0	1026.932597	384.5786413	53676	8.5033	18.99715933
2010	177	27.22	17.22	24.47	0	950.2680028	500.8939224	53661	8.0791	18.28036817
2010	178	30	19.44	27.1	1.03355	899.8804639	452.2930239	53641	8.06678	19.30827503
2010	179	31.67	21.11	28.76	0.1209	968.1793801	459.5384121	53619	8.25886	19.7894444
2010	180	26.67	19.44	24.68	0.017883333	1134.858296	230.7542668	53592	8.08834	19.38931875
2010	181	25	8.89	20.57	0	1057.861714	494.4765845	53562	7.49068	17.33210468
2010	182	22.22	10	18.86	0	983.406447	543.9774216	53529	7.12892	16.28866745
2010	183	22.22	10	18.86	0	883.5957742	477.9012718	53491	6.88882	15.96549992
2010	184	25	12.22	21.49	0	1060.72511	580.686352	53451	6.76282	16.36598365
2010	185	30	13.33	25.42	0	1367.643937	579.5667785	53407	6.70962	17.21038662
2010	186	32.78	18.33	28.81	0	1530.310727	571.458612	53359	6.47428	18.43653382
2010	187	34.44	20.56	30.62	0	1773.996979	479.4311893	53308	6.6861	19.31952563
2010	188	33.89	21.11	30.38	0	1710.002764	497.2774386	53254	6.48436	20.02090323
2010	189	33.89	21.11	30.38	0	1870.65705	500.8529477	53196	6.49766	20.17848253
2010	190	34.44	22.22	31.08	2.081583333	1197.390857	482.5280525	53135	6.43382	20.4236936
2010	191	32.78	18.33	28.81	1.728766667	1312.467067	395.9586096	53071	6.64228	20.20084825
2010	192	27.78	14.44	24.11	0	1133.416809	529.9081871	53004	6.81308	19.30888973
2010	193	30	17.22	26.49	0.73635	682.3568476	574.0629311	52933	7.12766	18.846274
2010	194	27.78	19.44	25.49	0.059183333	456.26382	347.1360016	52860	8.34398	19.28224325
2010	195	25.56	19.44	23.88	1.139066667	524.0691574	208.4963139	52783	8.88816	19.86386675
2010	196	28.33	18.33	25.58	0	848.8172994	315.1862327	52703	9.2341	20.51307767
2010	197	30.56	20	27.65	0.48655	485.2050045	505.5383603	52620	9.35842	20.27419867
2010	198	29.44	18.89	26.54	0.000166667	831.2836514	326.8061374	52535	9.49296	20.522058
2010	199	30	18.89	26.94	0.0028	1335.872475	498.2107771	52446	9.51452	21.09294767
2010	200	31.67	22.22	29.07	0.00055	1172.862153	519.6725176	52355	9.22542	20.96582317
2010	201	30.56	18.33	27.19	0.4471	546.8714812	463.5241707	52261	10.64026	20.39788183
2010	202	29.44	18.89	26.54	0.416091667	750.04759	328.5911701	52164	10.95834	20.79341983
2010	203	31.11	18.89	27.75	0.344708333	979.5500502	419.1912946	52065	10.88778	20.67530133
2010	204	29.44	20	26.85	0.001166667	1130.484838	520.6799174	51963	9.81118	21.33849767
2010	205	33.89	22.22	30.68	0.002166667	1667.306151	442.8348594	51858	8.9863	22.2691565
2010	206	32.78	22.22	29.88	0.206216667	1058.341802	481.0302668	51751	8.22386	21.73174067
2010	207	27.22	17.22	24.47	0	1104.311093	282.2865474	51642	7.58588	20.38504533
2010	208	27.78	16.11	24.57	0	989.1303315	567.2802788	51530	7.04254	19.73962867
2010	209	29.44	18.33	26.39	0	1062.703218	533.1413889	51417	6.7617	20.15907417
2010	210	30.56	20	27.65	0.312433333	1242.692256	501.9899839	51300	6.69086	20.830581
2010	211	28.89	14.44	24.92	0	1191.594979	460.9948938	51182	6.36116	19.49659167
2010	212	25.56	13.33	22.19	0	1046.683227	494.7624649	51062	6.08634	18.81577583
2010	213	26.67	15.56	23.61	0.0018	1014.72537	470.127959	50939	6.0393	19.33938283
2010	214	27.78	18.33	25.18	0	799.9971262	407.574343	50815	5.85926	19.10762783
2010	215	25.56	19.44	23.88	0.12175	482.7329491	320.505048	50688	5.81558	19.502351
2010	216	28.33	21.67	26.5	0.1883	643.2302471	251.1347045	50560	5.96188	20.543487
2010	217	32.22	20.56	29.01	0.015533333	1043.26288	361.4060932	50430	5.94662	20.74403933
2010	218	28.33	18.33	25.58	0.19875	980.2004728	369.8730619	50298	5.82342	20.11432783
2010	219	25.56	15	22.65	0	950.096899	393.763137	50164	5.57954	19.15767588
2010	220	26.67	13.89	23.15	0	1108.238357	462.9535229	50029	5.42792	18.72209362
2010	221	29.44	15	25.47	0	1455.063619	508.0575799	49892	5.32488	19.1443672
2010	222	32.22	17.22	28.1	0	1413.836914	510.3338352	49754	5.3554	20.39187183
2010	223	32.22	20	28.86	0	1543.52506	388.8282333	49614	5.44556	20.70883933
2010	224	31.67	20	28.46	1.727325	407.2173777	506.0540388	49472	5.5416	20.33607783
2010	225	23.33	16.67	21.5	0.066308333	456.9723593	142.3940018	49330	5.74656	19.4029686
2010	226	21.67	17.22	20.44	0	729.8387913	171.1266529	49186	5.90252	19.01914017
2010	227	24.44	19.44	23.07	0.923683333	306.2990266	208.9856974	49040	6.47792	19.1863359
2010	228	27.22	19.44	25.08	0.000133333	894.7940435	220.6972745	48894	7.74604	20.3943882
2010	229	30	16.67	26.33	0	1297.342299	448.3592342	48746	6.26218	19.55582327
2010	230	27.78	17.78	25.03	0	866.6201794	505.7492684	48597	5.09444	19.01600127
2010	231	25.56	14.44	22.5	0	779.0633917	269.789573	48446	6.74812	18.78472713
2010	232	30	16.11	26.18	0	1085.611031	467.3253439	48295	4.53654	19.0944217
2010	233	29.44	16.67	25.93	0.0001	1022.523487	460.0520346	48143	3.87602	19.338694
2010	234	28.33	17.22	25.28	5.16885	519.1962818	305.6888962	47990	13.09306	20.0564575
2010	235	26.11	17.22	23.67	0.204908333	405.6654593	252.5466763	47836	14.1495	19.13735567
2010	236	20.56	15	19.03	0.027841667	371.05711	154.4765724	47681	13.70136	18.59942135
2010	237	20.56	15	19.03	0.044958333	441.8330614	171.5406367	47525	13.38496	18.5540616
2010	238	25	16.67	22.71	0.000158333	877.2703059	277.5863293	47368	12.83014	18.49079867
2010	239	24.44	10.56	20.62	0	748.6583543	452.7073281	47210	11.61186	17.46827048
2010	240	25	10.56	21.03	0	779.5339742	545.0108773	47052	10.3884	17.00308023
2010	241	27.22	12.22	23.1	0	791.4642562	532.5858847	46893	9.04272	17.81763608
2010	242	30.56	14.44	26.13	0	1024.022671	515.6393823	46734	10.3751	18.23083208
2010	243	30.56	16.67	26.74	0	1047.837738	507.8233079	46573	9.83232	18.858482
2010	244	32.22	18.33	28.4	0	1262.067289	484.4877013	46413	9.22066	19.176745
2010	245	32.22	18.33	28.4	0	1320.47912	489.3984873	46251	8.7161	19.42058567
2010	246	32.78	18.33	28.81	0.00065	1314.304528	499.7139798	46089	8.14966	19.24038933
2010	247	31.67	15	27.08	0	1431.1609	397.3791114	45927	7.51896	17.8378315
2010	248	19.44	10.56	17	0	721.8798257	262.8457095	45764	6.90226	16.02503833
2010	249	20	7.78	16.64	0	679.7199161	411.8463802	45600	6.56122	15.42989667
2010	250	25.56	8.89	20.97	0	1107.261922	453.1883381	45437	6.48184	16.72624633
2010	251	31.67	15	27.08	0	1890.012094	489.8987952	45272	6.33736	17.63306667
2010	252	23.89	13.33	20.99	0.000183333	1038.530398	498.7605484	45108	5.87746	16.47345883
2010	253	19.44	12.78	17.61	6.67E-05	777.2339625	228.4968189	44943	5.6718	16.04587
2010	254	20	8.33	16.79	0	748.6275351	287.6414149	44778	5.44514	15.404432
2010	255	22.78	10	19.26	0.660916667	216.9822357	442.1500584	44613	5.47986	15.72037367
2010	256	20.56	9.44	17.5	0.0016	619.4254481	138.2047184	44447	5.5654	15.831157
2010	257	25	11.11	21.18	0	1061.000073	446.2729756	44281	5.52158	15.475162
2010	258	22.78	11.11	19.57	0	990.0210669	494.4632599	44115	5.43814	15.29362683
2010	259	23.89	10.56	20.22	2.125225	372.4080067	496.9890357	43949	7.19976	14.41124117
2010	260	17.78	11.67	16.1	0.484125	375.0209321	83.16623586	43783	14.10008	15.3171325
2010	261	17.78	8.89	15.33	0.005	375.7720653	235.761124	43617	12.48574	15.01316017
2010	262	22.78	8.89	18.96	0.0195	480.5608047	446.6498629	43450	11.37414	15.55488183
2010	263	26.11	11.67	22.14	3.33E-05	1081.792827	327.986593	43284	10.46106	15.49155033
2010	264	20.56	7.22	16.89	0	643.9765751	485.8513588	43117	9.37634	14.45450183
2010	265	25	7.22	20.11	0.01325	635.0261859	473.8088342	42951	8.7266	15.485618
2010	266	30.56	15	26.28	0.00045	782.4224953	368.811278	42784	8.26572	16.52706667
2010	267	28.89	16.11	25.38	0	1217.707535	344.2699519	42618	7.8082	17.43428883
2010	268	31.11	17.22	27.29	0	1751.510632	398.4491146	42452	7.2104	17.64784318
2010	269	25.56	10	21.28	0.000125	831.7510312	463.537035	42286	6.42388	16.39775938
2010	270	18.33	10	16.04	1.195225	164.7892971	263.5440307	42120	9.00366	16.3030759
2010	271	20	13.33	18.17	1.661683333	426.1130836	97.19021785	41954	14.33192	17.17121217
2010	272	22.78	12.22	19.88	0	487.310112	292.697899	41788	13.67966	15.9976159
2010	273	18.33	12.22	16.65	6.583841667	126.6738748	243.5562827	41623	15.07672	15.71155092
2010	274	17.78	12.22	16.25	0.844658333	547.663525	17.13587415	41458	16.68084	15.79209152
2010	275	18.33	5.56	14.82	0	426.5965178	265.7222428	41293	16.20652	14.53689807
2010	276	16.67	5.56	13.61	0	575.8699083	449.0565997	41129	15.64862	14.00777527
2010	277	16.67	6.11	13.76	0.53855	278.6348763	330.4320873	40964	15.78666	13.16021602
2010	278	9.44	6.67	8.68	0.212733333	133.5831472	99.10150173	40801	16.43262	12.22036588
2010	279	11.11	7.78	10.19	0.127425	190.0250428	69.93379381	40637	16.47084	11.97951245
2010	280	12.22	8.33	11.15	0.039575	463.5628944	83.46550901	40474	16.46356	12.52746153
2010	281	18.89	7.22	15.68	0	655.8766755	331.3621521	40312	16.25972	12.59559202
2010	282	22.22	7.78	18.25	0	779.6958025	428.2080577	40150	15.9296	12.95938407
2010	283	22.78	6.67	18.35	0	692.8307783	408.4916371	39989	15.58268	13.22031737
2010	284	25	6.67	19.96	0.066072917	741.3670975	360.3649838	39828	15.46214	14.03666288
2010	285	24.44	12.78	21.24	0.1991125	521.5284483	270.4355667	39667	15.47096	14.40265307
2010	286	20.56	3.33	15.82	0.09274375	566.6405233	336.8094668	39508	15.39536	13.40818554
2010	287	15.56	3.89	12.35	0.14305	231.1095259	430.254098	39349	15.24346	12.48151524
2010	288	12.22	6.11	10.54	0.1139375	468.0303829	76.08579169	39191	15.35042	12.24523832
2010	289	13.89	6.11	11.75	0.114870833	761.6832293	299.0997243	39033	15.38724	12.18860042
2010	290	16.11	6.67	13.51	0.122252083	685.4528063	410.6881045	38876	15.37338	12.04300834
2010	291	19.44	5	15.47	0.162904167	555.0569026	382.0488795	38720	15.24766	11.7922072
2010	292	11.67	5.56	9.99	0.1466625	282.4429187	120.9141712	38565	15.29694	11.53524094
2010	293	13.33	2.78	10.43	0.1443875	414.7898982	264.5504548	38411	15.32886	10.93046638
2010	294	15.56	3.33	12.19	0.1517625	699.3025205	337.0945691	38258	15.35868	10.7302778
2010	295	13.33	3.33	10.58	0.159147917	490.3280585	274.0697246	38106	15.27524	10.40743406
2010	296	10.56	3.33	8.57	0.166525	557.1833776	192.281847	37955	15.22022	10.2965939
2010	297	21.67	8.89	18.15	0.1739	1012.377238	291.9037002	37804	15.41594	11.25250118
2010	298	22.78	10	19.26	0.189858333	789.3058313	284.5886314	37655	15.46004	12.05917473
2010	299	20.56	10.56	17.81	0.18865625	358.6443465	155.1068354	37507	15.61908	12.63871772
2010	300	20.56	11.11	17.96	0.5158375	632.6654051	203.2973558	37361	17.58188	13.3486386
2010	301	21.11	12.22	18.67	0.212004167	1297.96509	322.3588301	37215	17.2526	12.82423333
2010	302	17.78	6.11	14.57	0.217233333	689.7388036	347.1481613	37071	16.97974	11.80977778
2010	303	9.44	1.11	7.15	0.2224625	444.2267866	150.9450592	36928	16.7115	10.70099482
2010	304	14.44	1.67	10.93	0.22984375	808.029403	251.4569035	36787	16.68042	10.50486597
2010	305	10.56	0	7.65	0.232933333	472.1719969	284.027115	36647	16.52558	9.941037032
2010	306	8.89	-2.78	5.68	0.240304167	319.3909071	359.4175812	36509	16.29892	8.970407247
2010	307	8.89	-3.33	5.53	0.247679167	312.2789986	355.656342	36372	16.17334	8.417784896
2010	308	11.67	-1.67	8	0.604264583	83.69635213	343.3609411	36237	17.38	8.722553301
2010	309	7.22	4.44	6.46	0.2888375	175.9257212	52.92471285	36103	17.79972	8.858722728
2010	310	7.78	0	5.64	0.269820833	172.1142941	97.46240164	35971	17.55234	8.423793521
2010	311	6.67	-1.67	4.38	0.277195833	210.7492259	142.1886031	35841	17.38434	7.886447289
2010	312	7.22	-1.67	4.78	0.284570833	361.6596132	179.3380594	35713	17.29656	7.829187946
2010	313	12.78	1.67	9.72	0.291952083	368.5225518	324.3533127	35586	17.2855	8.149008484
2010	314	13.33	2.78	10.43	0.2993375	419.5066571	299.6580688	35462	17.27892	8.619248341
2010	315	15.56	-0.56	11.13	0.25615	492.2783269	318.8450635	35339	17.1105	8.298659873
2010	316	14.44	-1.67	10.01	0	481.0964535	326.43334	35219	16.93354	7.773909928
2010	317	15.56	-2.78	10.51	0	559.4893169	328.940533	35100	16.79186	7.381788416
2010	318	16.11	-2.22	11.07	0	579.0470585	323.7285025	34984	16.7591	7.210595822
2010	319	16.11	1.11	11.99	0	372.2928587	239.3385247	34870	16.79158	7.926034503
2010	320	11.11	5.56	9.58	0.537322917	152.0840852	195.8880393	34759	17.81862	8.220106238
2010	321	13.33	6.11	11.35	0.203147917	320.9556925	43.06116616	34649	18.59114	8.635489766
2010	322	10	4.44	8.47	0	232.0091213	65.38371239	34542	18.19942	8.393011816
2010	323	7.22	0.56	5.39	0.0064375	269.3813889	61.88767201	34438	17.96086	7.490818883
2010	324	8.33	1.67	6.5	0	277.0268488	224.9680852	34336	17.772	6.770300967
2010	325	9.44	0	6.85	0	207.7341228	103.3870167	34237	17.95608837	6.267767417
2010	326	10	0.56	7.4	0	298.3917824	248.4682913	34140	17.93544311	6.275037567
2010	327	16.11	7.78	13.82	0	539.9005792	228.421192	34046	17.76103505	5.522082883
2010	328	16.67	1.11	12.39	0	692.4428835	88.00035312	33954	18.81267642	5.367075917
2010	329	6.11	1.11	4.74	0.507597917	181.2210866	229.914744	33866	18.54270489	4.692047733
2010	330	6.67	1.67	5.29	0.2343625	222.6173954	30.13803077	33780	19.29669996	4.507303117
2010	331	5.56	-1.67	3.57	0.0618	302.8723865	225.3732452	33697	20.22079673	4.25115525
2010	332	1.67	-1.11	0.9	0.027897917	235.2704458	71.87201974	33618	18.14174	4.071105683
2010	333	5.56	-4.44	2.81	0	198.9130146	274.7774369	33541	17.93188	3.63967765
2010	334	7.22	-4.44	4.01	0.559314583	144.0269041	261.5324963	33467	18.64422128	3.76357255
2010	335	15.56	6.11	12.96	0.634014583	217.6643005	33.74791658	33397	18.34676496	4.9113523
2010	336	8.89	-3.33	5.53	0	225.6602918	56.98089658	33329	18.67411257	4.656933883
2010	337	0	-3.89	-1.07	0	141.7869422	112.6552181	33265	19.29068371	3.979707083
2010	338	0.56	-3.33	-0.51	0	141.1717228	101.6101179	33204	18.46981321	3.623346433
2010	339	1.11	-5	-0.57	0	208.3396032	130.2905481	33146	18.08008655	3.401642
2010	340	0	-4.44	-1.22	0	185.6257966	174.1276179	33092	18.2415755	2.840411183
2010	341	-1.67	-5.56	-2.74	0	148.6670345	108.4282173	33041	18.10782465	2.220637133
2010	342	-2.22	-6.67	-3.44	0	170.1421997	105.1390701	32993	17.5877669	1.912908867
2010	343	-2.22	-7.78	-3.75	0	169.1102716	135.5753182	32949	18.02435703	1.610951267
2010	344	-1.11	-7.78	-2.94	0.8478	92.37163869	267.2914253	32909	20.81133966	1.4020664
2010	345	-1.11	-6.11	-2.49	0	125.3133763	65.3416983	32872	21.04217386	1.261899918
2010	346	3.33	-6.67	0.58	6.78475	53.99989583	205.4928654	32838	20.42078971	1.35168025
2010	347	6.67	-5.56	3.31	0.14025	286.7707843	41.38416448	32808	19.53386707	1.31521535
2010	348	-2.78	-10.56	-4.92	0.25175	157.1837901	177.9237168	32782	19.79921558	1.07571605
2010	349	-6.11	-10	-7.18	0.0091	133.9123063	126.1406605	32759	19.83702299	0.588993583
2010	350	-4.44	-10	-5.97	0.00675	116.3516088	136.7322552	32740	19.61537149	0.378364073
2010	351	-3.89	-10	-5.57	0	127.3264968	127.9263665	32724	19.29473677	0.236710285
2010	352	-1.11	-6.67	-2.64	0	177.9268931	140.7495613	32712	19.52747084	0.340416425
2010	353	-0.56	-10.56	-3.31	0	125.3856509	166.8297909	32704	20.37842262	0.26541224
2010	354	-1.67	-11.11	-4.26	0.0354	122.916714	191.5195249	32699	19.60048918	0.289377985
2010	355	-1.67	-4.44	-2.43	0.0081	206.3356866	65.8404774	32698	19.24711336	0.294307772
2010	356	1.67	-5	-0.17	0	258.9447398	251.0295995	32701	18.14214897	0.455309307
2010	357	2.78	-3.89	0.94	0.0417	253.2793513	148.6241271	32707	16.55512423	0.623204483
2010	358	1.11	-5	-0.57	0.0011	228.4464871	140.4444092	32717	20.5845585	0.521636233
2010	359	0.56	-5	-0.97	0.0005	180.6076639	227.5608826	32731	20.9202022	0.517617083
2010	360	-1.11	-6.11	-2.49	0.0301	171.8522103	91.28727779	32749	21.38079403	0.503288533
2010	361	-2.78	-8.89	-4.46	0	194.8111694	90.32785444	32770	21.41030534	0.45909635
2010	362	-2.22	-8.89	-4.06	0.0014	193.5319113	253.2168251	32794	20.36778334	0.625214433
2010	363	1.11	-6.11	-0.88	0	209.7445961	205.4664221	32822	19.64063977	0.58925275
2010	364	4.44	-7.22	1.24	0.0145	149.7636122	228.1116218	32854	18.87758864	0.549122383
2010	365	3.33	-7.22	0.43	0	147.0148056	119.8578936	32889	18.77043597	0.429551947
